time,ax,ay,az,gx,gy,gz
32582,"[-0.373495, -0.361524, -0.35913, -0.265756, -0.318429, -0.306458, -0.260968, -0.3304, -0.390255, -0.3304, -0.280122, -0.296881, -0.203507, -0.311246, -0.299275, -0.35913, -0.292093, -0.265756, -0.304064, -0.351948, -0.316035, -0.325611, -0.361524, -0.275333, -0.3304, -0.323217, -0.296881, -0.28491, -0.337582, -0.287304, -0.301669, -0.354342, -0.28491, -0.306458, -0.371101, -0.320823, -0.292093, -0.289698, -0.397437, -0.28491, -0.373495, -0.354342, -0.299275, -0.356736, -0.383072, -0.318429, -0.335188, -0.301669, -0.325611, -0.248997, -0.320823, -0.289698, -0.328006, -0.390255, -0.349553, -0.328006, -0.390255, -0.308852, -0.383072, -0.347159, -0.318429, -0.347159, -0.354342, -0.253785, -0.325611, -0.347159, -0.260968, -0.349553, -0.37589, -0.308852, -0.356736, -0.464475, -0.316035, -0.318429, -0.414197, -0.31364, -0.280122, -0.395043, -0.356736, -0.323217, -0.292093, -0.387861, -0.296881, -0.371101, -0.237026, -0.308852, -0.3304, -0.320823, -0.308852, -0.347159, -0.268151, -0.344765, -0.337582, -0.275333, -0.304064, -0.337582, -0.244209, -0.294487, -0.308852, -0.244209, -0.342371, -0.251391, -0.316035, -0.344765, -0.335188, -0.363919, -0.301669, -0.368707, -0.31364, -0.23942, -0.323217, -0.339977, -0.258574, -0.304064, -0.308852, -0.318429, -0.292093, -0.42138, -0.308852, -0.308852, -0.337582, -0.339977, -0.347159, -0.31364, -0.282516, -0.354342, -0.339977, -0.280122, -0.349553, -0.347159, -0.320823, -0.335188, -0.272939, -0.339977, -0.28491, -0.349553, -0.390255, -0.35913, -0.316035, -0.265756, -0.339977, -0.282516, -0.3304, -0.296881, -0.292093, -0.373495, -0.328006, -0.337582, -0.268151, -0.289698, -0.344765, -0.301669, -0.277727, -0.320823, -0.351948, -0.232238, -0.304064, -0.306458, -0.275333, -0.31364, -0.296881, -0.282516, -0.395043, -0.227449, -0.299275, -0.311246, -0.304064, -0.311246, -0.37589, -0.337582, -0.260968, -0.296881, -0.371101, -0.253785, -0.349553, -0.371101, -0.23942, -0.328006, -0.328006, -0.258574, -0.323217, -0.296881, -0.251391, -0.337582, -0.323217, -0.272939, -0.301669, -0.366313, -0.344765, -0.316035, -0.289698, -0.3304, -0.306458, -0.28491, -0.316035, -0.344765, -0.23942, -0.337582, -0.28491, -0.306458, -0.28491, -0.270545, -0.296881, -0.325611, -0.363919, -0.342371, -0.25618, -0.347159, -0.263362, -0.3304, -0.337582, -0.35913, -0.31364, -0.244209, -0.292093, -0.248997, -0.320823, -0.289698, -0.280122, -0.28491, -0.37589, -0.296881, -0.35913, -0.323217, -0.311246, -0.248997, -0.289698, -0.232238, -0.280122, -0.299275, -0.316035, -0.251391, -0.260968, -0.363919, -0.349553, -0.347159, -0.306458, -0.246603, -0.260968, -0.368707, -0.3304, -0.294487, -0.3304, -0.363919, -0.296881, -0.227449, -0.320823, -0.248997, -0.325611, -0.280122, -0.268151, -0.325611, -0.280122, -0.260968, -0.347159, -0.251391, -0.287304, -0.318429, -0.339977, -0.251391, -0.368707, -0.275333, -0.272939, -0.308852, -0.337582, -0.294487, -0.371101, -0.311246, -0.251391, -0.337582, -0.296881, -0.325611, -0.301669, -0.371101, -0.354342, -0.339977, -0.28491, -0.275333, -0.299275, -0.373495, -0.234632, -0.28491, -0.31364, -0.287304, -0.301669, -0.251391, -0.332794, -0.356736, -0.3304, -0.198719, -0.292093, -0.344765, -0.263362, -0.332794, -0.337582, -0.363919, -0.294487, -0.356736, -0.328006, -0.347159]","[-0.179565, -0.122104, -0.205901, -0.146046, -0.09098, -0.088585, -0.138864, -0.153229, -0.11971, -0.201113, -0.117316, -0.141258, -0.086191, -0.126893, -0.107739, -0.134075, -0.158017, -0.079009, -0.110133, -0.095768, -0.117316, -0.1652, -0.086191, -0.100556, -0.071826, -0.174777, -0.107739, -0.198719, -0.055067, -0.131681, -0.102951, -0.098162, -0.105345, -0.081403, -0.114922, -0.134075, -0.186748, -0.189142, -0.105345, -0.110133, -0.158017, -0.114922, -0.107739, -0.136469, -0.138864, -0.155623, -0.122104, -0.153229, -0.112527, -0.114922, -0.079009, -0.009577, -0.11971, -0.114922, -0.198719, -0.136469, -0.052672, -0.062249, -0.150835, -0.100556, -0.105345, -0.189142, -0.138864, -0.141258, -0.174777, -0.093374, -0.064643, -0.110133, -0.179565, -0.172383, -0.143652, -0.246603, -0.047884, -0.217872, -0.201113, -0.052672, -0.09098, -0.153229, -0.146046, -0.186748, -0.198719, -0.158017, -0.186748, -0.076614, -0.110133, -0.112527, -0.158017, -0.11971, -0.093374, -0.019154, -0.167594, -0.138864, -0.095768, -0.134075, -0.095768, -0.079009, -0.208296, -0.158017, -0.122104, -0.062249, -0.083797, -0.079009, -0.102951, -0.126893, -0.141258, -0.124498, -0.11971, -0.059855, -0.138864, -0.105345, -0.131681, -0.124498, -0.069432, -0.1652, -0.138864, -0.131681, -0.093374, -0.062249, -0.160412, -0.126893, -0.162806, -0.038307, -0.114922, -0.069432, -0.105345, -0.11971, -0.117316, -0.102951, -0.158017, -0.158017, -0.11971, -0.201113, -0.07422, -0.110133, -0.081403, -0.088585, -0.126893, -0.138864, -0.095768, -0.122104, -0.129287, -0.009577, -0.07422, -0.136469, -0.179565, -0.136469, -0.167594, -0.138864, -0.079009, -0.083797, -0.110133, -0.131681, -0.148441, -0.134075, -0.148441, -0.117316, -0.148441, -0.098162, -0.095768, -0.076614, -0.160412, -0.062249, -0.148441, -0.026336, -0.07422, -0.143652, -0.122104, -0.086191, -0.114922, -0.174777, -0.162806, -0.088585, -0.047884, -0.079009, -0.172383, -0.146046, -0.143652, -0.067038, -0.124498, -0.110133, -0.169988, -0.167594, -0.026336, -0.033519, -0.129287, -0.153229, -0.189142, -0.222661, -0.141258, -0.011971, -0.035913, -0.126893, -0.107739, -0.136469, -0.114922, -0.184354, -0.102951, -0.040701, -0.131681, -0.213084, -0.1652, -0.105345, -0.079009, -0.155623, -0.129287, -0.114922, -0.043096, -0.107739, -0.150835, -0.196325, -0.11971, -0.067038, -0.086191, -0.067038, -0.150835, -0.162806, -0.076614, -0.021548, -0.162806, -0.160412, -0.09098, -0.114922, -0.07422, -0.213084, -0.189142, -0.04549, -0.100556, -0.177171, -0.134075, -0.131681, -0.035913, -0.09098, -0.107739, -0.1652, -0.095768, -0.047884, -0.110133, -0.112527, -0.105345, -0.035913, -0.095768, -0.093374, -0.033519, -0.047884, -0.07422, -0.155623, -0.100556, -0.105345, -0.079009, -0.122104, -0.172383, -0.124498, -0.081403, -0.031125, -0.122104, -0.107739, -0.105345, -0.21069, -0.184354, -0.055067, -0.124498, -0.107739, -0.081403, -0.136469, -0.129287, -0.131681, -0.11971, -0.07422, -0.09098, -0.181959, -0.220267, -0.050278, -0.107739, -0.155623, -0.105345, -0.146046, -0.110133, -0.148441, -0.146046, -0.131681, -0.138864, -0.126893, -0.059855, -0.150835, -0.215478, -0.067038, -0.076614, -0.167594, -0.098162, -0.122104, -0.112527, -0.093374, -0.086191, -0.155623, -0.160412, -0.100556, -0.093374, -0.177171, -0.138864, -0.141258]","[9.516952, 9.55047, 9.603143, 9.576807, 9.562442, 9.469068, 9.488221, 9.543288, 9.485827, 9.569624, 9.514558, 9.555259, 9.457097, 9.533711, 9.363723, 9.440337, 9.528923, 9.574412, 9.471462, 9.488221, 9.473856, 9.55047, 9.548077, 9.497798, 9.425972, 9.528923, 9.593566, 9.531317, 9.495404, 9.471462, 9.495404, 9.557653, 9.540894, 9.5385, 9.361329, 9.526528, 9.509769, 9.545682, 9.452309, 9.533711, 9.509769, 9.622296, 9.528923, 9.41879, 9.500193, 9.512163, 9.509769, 9.555259, 9.560047, 9.557653, 9.526528, 9.471462, 9.557653, 9.473856, 9.555259, 9.421184, 9.536105, 9.461885, 9.483433, 9.557653, 9.528923, 9.536105, 9.512163, 9.414001, 9.560047, 9.478644, 9.488221, 9.502586, 9.579201, 9.627085, 9.495404, 9.320627, 9.449914, 9.569624, 9.560047, 9.543288, 9.536105, 9.636662, 9.457097, 9.555259, 9.485827, 9.595961, 9.548077, 9.526528, 9.5385, 9.481039, 9.548077, 9.624691, 9.411607, 9.473856, 9.495404, 9.466674, 9.466674, 9.483433, 9.49301, 9.564836, 9.471462, 9.478644, 9.481039, 9.552865, 9.560047, 9.531317, 9.483433, 9.495404, 9.555259, 9.466674, 9.476251, 9.485827, 9.548077, 9.591172, 9.619903, 9.476251, 9.526528, 9.514558, 9.473856, 9.545682, 9.490616, 9.452309, 9.440337, 9.564836, 9.586384, 9.495404, 9.516952, 9.619903, 9.572019, 9.562442, 9.514558, 9.358934, 9.469068, 9.526528, 9.459491, 9.593566, 9.507375, 9.533711, 9.516952, 9.533711, 9.435549, 9.600749, 9.524135, 9.469068, 9.500193, 9.394848, 9.473856, 9.52174, 9.586384, 9.507375, 9.507375, 9.603143, 9.627085, 9.500193, 9.490616, 9.52174, 9.560047, 9.44752, 9.56723, 9.500193, 9.572019, 9.593566, 9.526528, 9.454702, 9.481039, 9.5385, 9.471462, 9.512163, 9.397242, 9.409213, 9.545682, 9.531317, 9.469068, 9.449914, 9.497798, 9.473856, 9.500193, 9.497798, 9.509769, 9.552865, 9.526528, 9.428367, 9.543288, 9.461885, 9.457097, 9.552865, 9.5385, 9.478644, 9.555259, 9.528923, 9.722853, 9.667787, 9.433155, 9.445126, 9.488221, 9.519346, 9.394848, 9.552865, 9.629479, 9.572019, 9.533711, 9.361329, 9.552865, 9.540894, 9.586384, 9.378088, 9.49301, 9.490616, 9.545682, 9.560047, 9.526528, 9.500193, 9.588778, 9.524135, 9.579201, 9.488221, 9.461885, 9.500193, 9.497798, 9.574412, 9.478644, 9.478644, 9.555259, 9.552865, 9.449914, 9.40203, 9.425972, 9.562442, 9.569624, 9.478644, 9.366117, 9.473856, 9.591172, 9.524135, 9.564836, 9.519346, 9.560047, 9.421184, 9.461885, 9.519346, 9.545682, 9.636662, 9.44752, 9.569624, 9.449914, 9.545682, 9.481039, 9.603143, 9.425972, 9.536105, 9.545682, 9.49301, 9.469068, 9.552865, 9.516952, 9.504981, 9.421184, 9.548077, 9.411607, 9.44752, 9.473856, 9.485827, 9.555259, 9.5385, 9.519346, 9.572019, 9.481039, 9.504981, 9.500193, 9.52174, 9.464279, 9.576807, 9.540894, 9.56723, 9.5385, 9.471462, 9.526528, 9.591172, 9.440337, 9.442732, 9.440337, 9.519346, 9.560047, 9.610326, 9.433155, 9.504981, 9.437943, 9.504981, 9.536105, 9.5385, 9.483433, 9.55047, 9.548077, 9.56723, 9.61272, 9.469068, 9.533711, 9.469068, 9.528923, 9.564836, 9.44752, 9.490616, 9.495404, 9.500193]","[-0.004796, -0.001865, -0.003464, -0.003198, -0.003464, -0.003997, -0.005329, -0.001865, -0.000533, -0.003464, -0.002931, -0.005596, -0.004263, -0.005596, -0.006662, -0.004796, -0.001066, -0.00373, -0.005862, -0.003464, -0.004796, -0.005063, -0.002931, -0.003198, -0.005063, -0.001599, -0.00373, -0.003997, -0.003997, -0.001865, -0.002398, 0.000533, -0.002665, -0.001599, -0.002931, -0.000533, -0.003198, -0.001332, -0.002398, -0.000533, -0.002931, -0.006129, -0.004263, -0.003464, -0.005063, -0.001332, -0.001599, -0.002665, -0.002931, -0.005063, -0.005063, -0.003997, -0.003198, -0.00373, -0.002132, 0.000533, -0.005862, -0.001332, -0.004263, -0.002931, -0.002132, -0.001865, 0, -0.001332, -0.001599, -0.00373, -0.005862, -0.002665, -0.002665, -0.00453, -0.001599, -0.001332, -0.003997, -0.00453, -0.006395, -0.002665, -0.002132, -0.001332, -0.005596, -0.002132, -0.003198, -0.003464, -0.002132, -0.001332, -0.005063, -0.002132, -0.002931, -0.002398, -0.00373, -0.003997, -0.002931, -0.005596, -0.000266, -0.005329, -0.000266, -0.003198, -0.005063, -0.002132, -0.001865, -0.001865, -0.003997, 0.001599, 0.001332, -0.001865, -0.003997, -0.000533, -0.002398, -0.003464, -0.00373, -0.001332, -0.002931, -0.003198, -0.00373, -0.00373, -0.002931, -0.002665, -0.005063, -0.000266, -0.00373, -0.004796, 0.000266, -0.000533, -0.001332, -0.001066, -0.002398, 0.001066, -0.002931, -0.001599, 0, 0.001332, -0.000533, -0.002132, -0.002132, -0.002931, -0.004263, -0.003198, -0.00453, -0.001332, 0.002398, -0.00826, -0.005596, -0.003464, 0.001066, -0.002665, -0.001066, 0.001865, -0.002398, -0.002931, -0.002398, -0.00373, -0.002665, -0.002132, -0.004263, -0.002931, -0.00453, -0.002132, -0.002665, -0.006662, -0.00453, -0.003464, -0.004796, -0.001066, -0.000799, -0.000266, -0.001865, -0.001332, -0.002665, -0.001865, -0.00453, -0.002398, -0.003997, -0.000799, -0.003198, -0.002931, -0.002398, -0.001599, 0, -0.001066, -0.001865, -0.005063, -0.003464, -0.002665, -0.000799, -0.002931, -0.002931, -0.003464, -0.006129, 0.001332, 0.000533, -0.001865, -0.004263, -0.00373, -0.002132, -0.004263, -0.002398, -0.007194, -0.002665, -0.005063, -0.004796, -0.002665, 0.001599, -0.003464, -0.003198, -0.003997, -0.003198, -0.004796, -0.002398, -0.001332, -0.002665, -0.003997, -0.003464, -0.001599, -0.002398, -0.00373, -0.002398, -0.003464, -0.001332, -0.002132, -0.002132, -0.004796, -0.002665, -0.000266, -0.006129, -0.005329, -0.002398, -0.003198, -0.006395, -0.004263, -0.004263, -0.000266, -0.003198, -0.001865, -0.001599, -0.003198, -0.003997, -0.002398, -0.002931, -0.00453, -0.006129, -0.003464, -0.002665, -0.00373, -0.003198, -0.000266, -0.005596, -0.001599, -0.001865, -0.001066, -0.003198, -0.001865, -0.000799, -0.002398, -0.002398, -0.000799, -0.003198, -0.00373, -0.003464, -0.002398, -0.002931, -0.003464, -0.001332, -0.000533, -0.001865, -0.003198, -0.002665, -0.003198, -0.000799, -0.002665, -0.002132, -0.003198, -0.000533, 0.000266, -0.00453, -0.003997, -0.002132, -0.002665, -0.002398, -0.002665, -0.003464, -0.004796, -0.002665, -0.002398, -0.006662, -0.003464, 0.001066, -0.001865, 0.001332, -0.001066, -0.009326, -0.007194, -0.006395, -0.00373, -0.001865, -0.006662, -0.005063, -0.006662, -0.004796, -0.002665, -0.006129, -0.001865]","[-0.046897, -0.047697, -0.047963, -0.048496, -0.046364, -0.046631, -0.044233, -0.046364, -0.046098, -0.050361, -0.047164, -0.04743, -0.045565, -0.046098, -0.047164, -0.04743, -0.045032, -0.045832, -0.045565, -0.044233, -0.045032, -0.046098, -0.050628, -0.046364, -0.047164, -0.047164, -0.046364, -0.04823, -0.047697, -0.04743, -0.050095, -0.046897, -0.047697, -0.046364, -0.049562, -0.047164, -0.051161, -0.047697, -0.046364, -0.048496, -0.049296, -0.045565, -0.046364, -0.046631, -0.049296, -0.050894, -0.048763, -0.05196, -0.048763, -0.049296, -0.046098, -0.0429, -0.047963, -0.046098, -0.049828, -0.047164, -0.050894, -0.050628, -0.046098, -0.050095, -0.045565, -0.04743, -0.048763, -0.04743, -0.049029, -0.049029, -0.047697, -0.048496, -0.048763, -0.049029, -0.046364, -0.045565, -0.052227, -0.044233, -0.042634, -0.047164, -0.046098, -0.046098, -0.045565, -0.047697, -0.050361, -0.045832, -0.049562, -0.049029, -0.047963, -0.047164, -0.050894, -0.047164, -0.046897, -0.0437, -0.048496, -0.054092, -0.047963, -0.05196, -0.049562, -0.05196, -0.049296, -0.047164, -0.043167, -0.048763, -0.051694, -0.05196, -0.047963, -0.050361, -0.048496, -0.047697, -0.050095, -0.047164, -0.046897, -0.048496, -0.047697, -0.045032, -0.04823, -0.050095, -0.046098, -0.04743, -0.047963, -0.043966, -0.045032, -0.046364, -0.045299, -0.047697, -0.046897, -0.046364, -0.046364, -0.046631, -0.045032, -0.046364, -0.044766, -0.04823, -0.046364, -0.047963, -0.045832, -0.049562, -0.047697, -0.048496, -0.048496, -0.050095, -0.049029, -0.045832, -0.045832, -0.045032, -0.047963, -0.046631, -0.045299, -0.050095, -0.048763, -0.050095, -0.048763, -0.045032, -0.046897, -0.046364, -0.046631, -0.045032, -0.045565, -0.044766, -0.045032, -0.049296, -0.047963, -0.045299, -0.049296, -0.04743, -0.047697, -0.049562, -0.04743, -0.046631, -0.046897, -0.050628, -0.048496, -0.047164, -0.046631, -0.047963, -0.045299, -0.049828, -0.046098, -0.048496, -0.05196, -0.047164, -0.046364, -0.047963, -0.050628, -0.050361, -0.046631, -0.045299, -0.045299, -0.049296, -0.048496, -0.049029, -0.048496, -0.044766, -0.046631, -0.046364, -0.048496, -0.047697, -0.047164, -0.046631, -0.047164, -0.04823, -0.044233, -0.046631, -0.04743, -0.047697, -0.04743, -0.047164, -0.043966, -0.046098, -0.046631, -0.043966, -0.047963, -0.04743, -0.049562, -0.047697, -0.048496, -0.047697, -0.045565, -0.046098, -0.046897, -0.045832, -0.045565, -0.045832, -0.049828, -0.048763, -0.04743, -0.04743, -0.050361, -0.04823, -0.046364, -0.050361, -0.046897, -0.04743, -0.047697, -0.045565, -0.048763, -0.04743, -0.046098, -0.048496, -0.048763, -0.047164, -0.048496, -0.04823, -0.04743, -0.04823, -0.045565, -0.043167, -0.048763, -0.047164, -0.04743, -0.047963, -0.049828, -0.046631, -0.045565, -0.045832, -0.047963, -0.046897, -0.04823, -0.046098, -0.049296, -0.04743, -0.043966, -0.047697, -0.046364, -0.046897, -0.047963, -0.049029, -0.048763, -0.045299, -0.049562, -0.046897, -0.048763, -0.047963, -0.048496, -0.05196, -0.04823, -0.046897, -0.046631, -0.049828, -0.046631, -0.050361, -0.046897, -0.046364, -0.046364, -0.046364, -0.048763, -0.050628, -0.04823, -0.045565, -0.050894, -0.04823, -0.046631, -0.043167, -0.0437, -0.045832, -0.044233, -0.046098, -0.045832, -0.04743, -0.045832, -0.047697, -0.046631, -0.046897]","[-0.023715, -0.021317, -0.022383, -0.019452, -0.021051, -0.020251, -0.020518, -0.019185, -0.021317, -0.019985, -0.020784, -0.023182, -0.022649, -0.024248, -0.021051, -0.019452, -0.022649, -0.020518, -0.019985, -0.022116, -0.020251, -0.017587, -0.022649, -0.021317, -0.024515, -0.020251, -0.019985, -0.021051, -0.02185, -0.021317, -0.022116, -0.020251, -0.023715, -0.022383, -0.021583, -0.021583, -0.019985, -0.019718, -0.022116, -0.020784, -0.020251, -0.022383, -0.021583, -0.025047, -0.020518, -0.020784, -0.026113, -0.022916, -0.018386, -0.025314, -0.02185, -0.020518, -0.022383, -0.022116, -0.02185, -0.020784, -0.019985, -0.020251, -0.021051, -0.022116, -0.018652, -0.021317, -0.018652, -0.020251, -0.021583, -0.021051, -0.020784, -0.022649, -0.023449, -0.025047, -0.020784, -0.01732, -0.023449, -0.024248, -0.021317, -0.019718, -0.019452, -0.022383, -0.025047, -0.023715, -0.023182, -0.018919, -0.020251, -0.020251, -0.019985, -0.022116, -0.022116, -0.021051, -0.017587, -0.020784, -0.023182, -0.020251, -0.019452, -0.020251, -0.022916, -0.019985, -0.019452, -0.018919, -0.023982, -0.023982, -0.022383, -0.023982, -0.017587, -0.022383, -0.019985, -0.020251, -0.023182, -0.021317, -0.023982, -0.022383, -0.018919, -0.023182, -0.021583, -0.023182, -0.023715, -0.02185, -0.023449, -0.020518, -0.018652, -0.024248, -0.019452, -0.023182, -0.019718, -0.022916, -0.019985, -0.023449, -0.022649, -0.02185, -0.021051, -0.020784, -0.021583, -0.020518, -0.021583, -0.020784, -0.021583, -0.018919, -0.023182, -0.019185, -0.021583, -0.023182, -0.018119, -0.021583, -0.020784, -0.019452, -0.018919, -0.024515, -0.020518, -0.021317, -0.022649, -0.023982, -0.019452, -0.021583, -0.023449, -0.021583, -0.019718, -0.021051, -0.02185, -0.023182, -0.018652, -0.021583, -0.020784, -0.022649, -0.020784, -0.02185, -0.020784, -0.018919, -0.020251, -0.018386, -0.023449, -0.02185, -0.018652, -0.019718, -0.022649, -0.019718, -0.022116, -0.019718, -0.022116, -0.019185, -0.022116, -0.019185, -0.020518, -0.021051, -0.023182, -0.018919, -0.021051, -0.022649, -0.019718, -0.022916, -0.023182, -0.022116, -0.023182, -0.021583, -0.020784, -0.024781, -0.02185, -0.021317, -0.020518, -0.018919, -0.022116, -0.017587, -0.023982, -0.022916, -0.022649, -0.023715, -0.023182, -0.022916, -0.020251, -0.019985, -0.02185, -0.020784, -0.021051, -0.021583, -0.020518, -0.023982, -0.020518, -0.019985, -0.022116, -0.020518, -0.020784, -0.018386, -0.020251, -0.02185, -0.024248, -0.018919, -0.022649, -0.019185, -0.024248, -0.022916, -0.021317, -0.022116, -0.022916, -0.019185, -0.020784, -0.021317, -0.022916, -0.020518, -0.018652, -0.02185, -0.021317, -0.017054, -0.020518, -0.022916, -0.021051, -0.020251, -0.020784, -0.022916, -0.020251, -0.020518, -0.020784, -0.021051, -0.016787, -0.019185, -0.02185, -0.023982, -0.019452, -0.023449, -0.023982, -0.021583, -0.022383, -0.022116, -0.022916, -0.022116, -0.022916, -0.020784, -0.022649, -0.021583, -0.019185, -0.022916, -0.019185, -0.02185, -0.019185, -0.022116, -0.024515, -0.022383, -0.022116, -0.019718, -0.021317, -0.018386, -0.023182, -0.023982, -0.020518, -0.023449, -0.021317, -0.021051, -0.022649, -0.022649, -0.021051, -0.017853, -0.024781, -0.022116, -0.018919, -0.021583, -0.023982, -0.020784, -0.023715, -0.021317, -0.022116, -0.02185, -0.022916, -0.024248]"
32587,"[-0.28491, -0.332794, -0.213084, -0.323217, -0.282516, -0.335188, -0.320823, -0.275333, -0.339977, -0.229843, -0.335188, -0.40462, -0.351948, -0.35913, -0.344765, -0.258574, -0.260968, -0.308852, -0.301669, -0.289698, -0.387861, -0.361524, -0.272939, -0.378284, -0.363919, -0.229843, -0.42138, -0.363919, -0.318429, -0.306458, -0.316035, -0.28491, -0.339977, -0.3304, -0.220267, -0.308852, -0.328006, -0.229843, -0.31364, -0.366313, -0.323217, -0.337582, -0.308852, -0.251391, -0.378284, -0.373495, -0.234632, -0.234632, -0.373495, -0.35913, -0.31364, -0.272939, -0.296881, -0.414197, -0.292093, -0.265756, -0.301669, -0.368707, -0.225055, -0.287304, -0.332794, -0.31364, -0.335188, -0.325611, -0.308852, -0.342371, -0.31364, -0.213084, -0.280122, -0.380678, -0.318429, -0.301669, -0.289698, -0.316035, -0.287304, -0.3304, -0.246603, -0.320823, -0.366313, -0.272939, -0.306458, -0.304064, -0.25618, -0.411803, -0.328006, -0.31364, -0.28491, -0.282516, -0.316035, -0.308852, -0.363919, -0.299275, -0.363919, -0.325611, -0.299275, -0.275333, -0.339977, -0.361524, -0.318429, -0.363919, -0.296881, -0.306458, -0.306458, -0.184354, -0.270545, -0.392649, -0.35913, -0.220267, -0.31364, -0.380678, -0.299275, -0.282516, -0.35913, -0.304064, -0.3304, -0.347159, -0.311246, -0.294487, -0.296881, -0.28491, -0.25618, -0.335188, -0.265756, -0.258574, -0.308852, -0.28491, -0.35913, -0.325611, -0.237026, -0.311246, -0.332794, -0.272939, -0.332794, -0.349553, -0.251391, -0.320823, -0.299275, -0.272939, -0.275333, -0.323217, -0.356736, -0.328006, -0.332794, -0.251391, -0.265756, -0.349553, -0.253785, -0.308852, -0.296881, -0.232238, -0.323217, -0.397437, -0.320823, -0.342371, -0.320823, -0.275333, -0.260968, -0.296881, -0.304064, -0.320823, -0.299275, -0.339977, -0.287304, -0.320823, -0.320823, -0.258574, -0.328006, -0.363919, -0.282516, -0.304064, -0.373495, -0.260968, -0.308852, -0.325611, -0.308852, -0.272939, -0.294487, -0.258574, -0.342371, -0.332794, -0.299275, -0.304064, -0.272939, -0.277727, -0.308852, -0.349553, -0.318429, -0.323217, -0.344765, -0.308852, -0.328006, -0.316035, -0.349553, -0.347159, -0.282516, -0.301669, -0.316035, -0.354342, -0.258574, -0.342371, -0.311246, -0.294487, -0.308852, -0.402226, -0.263362, -0.332794, -0.337582, -0.282516, -0.335188, -0.344765, -0.296881, -0.339977, -0.318429, -0.323217, -0.296881, -0.308852, -0.28491, -0.28491, -0.316035, -0.354342, -0.356736, -0.316035, -0.311246, -0.215478, -0.325611, -0.385466, -0.342371, -0.280122, -0.320823, -0.253785, -0.337582, -0.339977, -0.287304, -0.31364, -0.296881, -0.28491, -0.294487, -0.339977, -0.260968, -0.387861, -0.318429, -0.260968, -0.263362, -0.325611, -0.260968, -0.296881, -0.306458, -0.289698, -0.318429, -0.311246, -0.296881, -0.351948, -0.287304, -0.275333, -0.301669, -0.203507, -0.306458, -0.296881, -0.3304, -0.220267, -0.287304, -0.316035, -0.282516, -0.325611, -0.361524, -0.253785, -0.268151, -0.241814, -0.337582, -0.301669, -0.316035, -0.316035, -0.277727, -0.311246, -0.220267, -0.35913, -0.323217, -0.320823, -0.316035, -0.423774, -0.311246, -0.31364, -0.354342, -0.301669, -0.28491, -0.397437, -0.354342, -0.339977, -0.215478, -0.3304, -0.260968, -0.354342, -0.311246, -0.251391, -0.299275, -0.272939, -0.292093, -0.325611, -0.268151, -0.308852]","[-0.059855, -0.124498, -0.117316, -0.160412, -0.131681, -0.110133, -0.124498, -0.083797, -0.146046, -0.201113, -0.141258, -0.107739, -0.02873, -0.102951, -0.184354, -0.134075, -0.083797, -0.057461, -0.09098, -0.167594, -0.09098, -0.098162, -0.086191, -0.169988, -0.189142, -0.095768, -0.016759, -0.038307, -0.162806, -0.177171, -0.11971, -0.035913, -0.146046, -0.105345, -0.143652, -0.160412, -0.07422, -0.146046, -0.186748, -0.143652, -0.002394, -0.102951, -0.138864, -0.107739, -0.229843, -0.179565, -0.093374, -0.102951, -0.105345, -0.141258, -0.134075, -0.064643, -0.167594, -0.205901, -0.146046, -0.004788, -0.07422, -0.102951, -0.079009, -0.11971, -0.098162, -0.102951, -0.138864, -0.160412, -0.095768, -0.079009, -0.105345, -0.124498, -0.141258, -0.107739, -0.114922, -0.107739, -0.208296, -0.186748, -0.067038, -0.081403, -0.126893, -0.201113, -0.150835, -0.069432, -0.04549, -0.167594, -0.141258, -0.155623, -0.114922, -0.040701, -0.131681, -0.124498, -0.160412, -0.081403, -0.114922, -0.09098, -0.186748, -0.138864, -0.069432, -0.076614, -0.11971, -0.179565, -0.110133, -0.088585, -0.126893, 0.033519, 0.043096, -0.064643, -0.138864, -0.110133, -0.088585, -0.110133, -0.069432, -0.100556, -0.079009, -0.081403, -0.069432, -0.067038, 0.035913, -0.134075, -0.143652, -0.141258, -0.071826, -0.105345, -0.143652, -0.162806, -0.105345, -0.126893, -0.126893, -0.177171, -0.148441, -0.141258, -0.086191, -0.174777, -0.112527, -0.11971, -0.067038, -0.086191, -0.169988, -0.148441, -0.114922, -0.019154, -0.110133, -0.158017, -0.126893, -0.02873, -0.050278, -0.153229, -0.153229, -0.055067, -0.105345, -0.04549, -0.138864, -0.136469, -0.174777, -0.095768, -0.141258, -0.11971, -0.196325, -0.112527, -0.09098, -0.150835, -0.160412, -0.126893, -0.047884, -0.100556, -0.172383, -0.158017, -0.160412, -0.059855, -0.079009, -0.148441, -0.201113, -0.138864, -0.086191, -0.050278, -0.100556, -0.215478, -0.098162, -0.062249, -0.086191, -0.148441, -0.124498, -0.150835, -0.117316, -0.057461, -0.126893, -0.055067, -0.11971, -0.198719, -0.071826, -0.117316, -0.076614, -0.098162, -0.11971, -0.138864, -0.004788, -0.083797, -0.088585, -0.138864, -0.138864, -0.088585, -0.031125, -0.059855, -0.07422, -0.136469, -0.126893, -0.11971, -0.064643, -0.189142, -0.148441, -0.059855, -0.098162, -0.117316, -0.160412, -0.136469, -0.076614, -0.126893, -0.172383, -0.153229, -0.098162, -0.052672, -0.09098, -0.11971, -0.167594, -0.169988, -0.107739, -0.129287, -0.158017, -0.055067, -0.095768, -0.172383, -0.129287, -0.220267, -0.215478, -0.035913, -0.026336, -0.112527, -0.076614, -0.150835, -0.04549, -0.081403, -0.088585, -0.191536, -0.122104, -0.033519, -0.146046, -0.155623, -0.131681, -0.117316, -0.083797, -0.098162, -0.158017, -0.201113, -0.098162, -0.088585, -0.122104, -0.114922, -0.198719, -0.191536, -0.148441, -0.11971, -0.191536, -0.086191, -0.105345, -0.107739, -0.131681, -0.184354, -0.007183, -0.081403, -0.095768, -0.081403, -0.225055, -0.155623, -0.098162, -0.107739, -0.043096, -0.086191, -0.07422, -0.126893, -0.146046, -0.069432, 0.014365, -0.057461, -0.158017, -0.138864, -0.079009, -0.035913, -0.172383, -0.11971, -0.076614, -0.136469, -0.088585, -0.014365, -0.040701, -0.141258, -0.117316, -0.158017, -0.198719, -0.02873, -0.040701, -0.076614, -0.098162, -0.19393]","[9.485827, 9.428367, 9.593566, 9.464279, 9.495404, 9.526528, 9.526528, 9.43076, 9.507375, 9.469068, 9.519346, 9.473856, 9.591172, 9.44752, 9.504981, 9.55047, 9.581595, 9.406818, 9.586384, 9.56723, 9.52174, 9.5385, 9.588778, 9.40203, 9.593566, 9.591172, 9.528923, 9.519346, 9.49301, 9.502586, 9.557653, 9.548077, 9.488221, 9.504981, 9.540894, 9.471462, 9.488221, 9.502586, 9.528923, 9.52174, 9.473856, 9.519346, 9.481039, 9.483433, 9.507375, 9.581595, 9.471462, 9.593566, 9.545682, 9.643845, 9.524135, 9.481039, 9.531317, 9.572019, 9.526528, 9.485827, 9.414001, 9.497798, 9.504981, 9.497798, 9.552865, 9.485827, 9.528923, 9.572019, 9.507375, 9.452309, 9.545682, 9.564836, 9.536105, 9.586384, 9.540894, 9.526528, 9.564836, 9.557653, 9.476251, 9.483433, 9.449914, 9.504981, 9.464279, 9.495404, 9.495404, 9.459491, 9.639056, 9.516952, 9.452309, 9.488221, 9.557653, 9.569624, 9.49301, 9.466674, 9.469068, 9.552865, 9.495404, 9.55047, 9.540894, 9.478644, 9.540894, 9.557653, 9.452309, 9.461885, 9.495404, 9.449914, 9.552865, 9.31105, 9.56723, 9.502586, 9.615114, 9.583989, 9.483433, 9.531317, 9.591172, 9.483433, 9.43076, 9.509769, 9.459491, 9.5385, 9.483433, 9.488221, 9.545682, 9.421184, 9.502586, 9.619903, 9.619903, 9.485827, 9.512163, 9.536105, 9.533711, 9.55047, 9.524135, 9.564836, 9.473856, 9.545682, 9.366117, 9.61272, 9.476251, 9.588778, 9.461885, 9.536105, 9.457097, 9.557653, 9.531317, 9.454702, 9.543288, 9.469068, 9.481039, 9.490616, 9.459491, 9.507375, 9.485827, 9.526528, 9.564836, 9.548077, 9.531317, 9.545682, 9.543288, 9.548077, 9.524135, 9.512163, 9.622296, 9.526528, 9.507375, 9.40203, 9.548077, 9.461885, 9.485827, 9.478644, 9.485827, 9.488221, 9.5385, 9.5385, 9.502586, 9.457097, 9.5385, 9.531317, 9.583989, 9.454702, 9.43076, 9.524135, 9.569624, 9.469068, 9.540894, 9.56723, 9.548077, 9.385271, 9.409213, 9.361329, 9.516952, 9.591172, 9.507375, 9.473856, 9.469068, 9.500193, 9.52174, 9.562442, 9.478644, 9.476251, 9.504981, 9.581595, 9.543288, 9.500193, 9.560047, 9.495404, 9.409213, 9.514558, 9.497798, 9.55047, 9.5385, 9.564836, 9.507375, 9.421184, 9.488221, 9.55047, 9.5385, 9.387665, 9.509769, 9.504981, 9.514558, 9.421184, 9.466674, 9.466674, 9.516952, 9.52174, 9.572019, 9.581595, 9.619903, 9.557653, 9.387665, 9.449914, 9.512163, 9.471462, 9.531317, 9.507375, 9.631873, 9.545682, 9.536105, 9.440337, 9.581595, 9.440337, 9.452309, 9.603143, 9.531317, 9.507375, 9.476251, 9.490616, 9.473856, 9.572019, 9.500193, 9.445126, 9.471462, 9.543288, 9.481039, 9.421184, 9.569624, 9.490616, 9.442732, 9.497798, 9.557653, 9.533711, 9.485827, 9.390059, 9.543288, 9.495404, 9.610326, 9.481039, 9.524135, 9.507375, 9.452309, 9.461885, 9.507375, 9.543288, 9.540894, 9.478644, 9.533711, 9.435549, 9.473856, 9.543288, 9.44752, 9.526528, 9.44752, 9.540894, 9.52174, 9.55047, 9.464279, 9.469068, 9.617508, 9.55047, 9.500193, 9.454702, 9.500193, 9.466674, 9.466674, 9.473856, 9.449914, 9.507375, 9.572019, 9.528923, 9.531317, 9.440337, 9.648633, 9.548077]","[-0.004263, -0.002931, -0.002132, -0.003198, -0.003198, -0.004796, -0.003997, -0.001865, -0.002132, -0.000533, -0.00373, -0.002398, -0.003997, -0.003464, -0.000799, -0.003198, -0.002398, -0.001599, -0.001599, -0.002665, -0.003997, 0.000799, -0.002132, -0.003997, -0.005862, 0.000533, -0.002665, -0.002132, -0.002398, -0.001865, -0.006129, -0.006129, -0.005862, -0.005329, -0.001066, -0.005862, 0.000266, -0.002398, -0.002398, -0.006395, -0.003464, -0.002931, -0.00373, -0.002398, -0.00373, -0.004263, -0.00373, -0.00373, -0.007461, -0.002398, -0.001865, -0.005329, 0.001066, -0.003198, -0.000533, -0.005063, -0.002132, 0.000266, -0.004263, -0.005063, -0.002398, -0.005063, -0.005596, -0.003198, -0.000266, -0.001066, -0.00373, -0.003464, 0, -0.003464, -0.004263, -0.004263, 0.000533, -0.00453, -0.000533, -0.001599, -0.002132, -0.002665, -0.000533, -0.003198, -0.002665, -0.005329, -0.003464, -0.006129, -0.00373, -0.002132, -0.001066, -0.002665, -0.001066, -0.002132, -0.00373, -0.005862, -0.000266, 0.000533, -0.005063, -0.003198, -0.000533, -0.001599, -0.003464, -0.004263, -0.000799, -0.010392, 0.003198, -0.007194, -0.010126, -0.000533, -0.006662, -0.00453, -0.005063, -0.002665, -0.002132, -0.002398, -0.002931, -0.005063, -0.004796, -0.004263, -0.001332, -0.002132, -0.00453, -0.002665, -0.00373, -0.002398, -0.006662, -0.003997, -0.003198, -0.004796, -0.002132, 0, -0.001599, -0.002398, -0.001599, -0.006395, -0.003464, -0.003997, -0.002132, -0.004263, 0.000266, -0.003997, -0.003464, -0.004796, -0.000533, 0.001332, -0.000799, -0.005329, -0.002665, -0.003464, -0.001066, -0.005329, -0.006395, -0.001332, -0.002931, -0.00373, -0.006928, -0.00373, -0.004263, -0.005329, -0.00373, -0.002398, -0.005063, -0.001599, -0.003464, -0.001332, -0.00373, -0.001599, -0.001066, -0.001865, -0.003997, -0.002398, -0.003464, -0.004263, -0.003997, -0.003997, -0.005063, -0.005862, -0.003198, -0.002398, -0.003464, -0.003997, -0.001865, -0.002931, -0.002132, -0.001066, -0.002665, -0.003997, -0.002398, -0.002665, -0.004796, -0.00373, -0.005063, -0.002398, -0.002132, -0.002398, -0.00453, -0.005862, -0.002132, -0.005063, -0.006928, -0.001865, -0.00373, -0.004796, -0.003997, 0.001332, -0.001865, -0.001332, -0.003464, -0.005596, 0.002132, -0.004263, -0.001066, -0.005329, -0.001066, -0.000266, -0.007194, -0.002931, -0.005596, -0.003198, -0.000799, -0.002398, -0.002132, -0.002665, -0.002665, -0.003997, -0.005596, -0.002665, -0.00373, -0.002665, -0.001066, -0.003198, -0.005862, -0.002398, -0.001066, -0.00453, -0.002931, -0.004263, -0.00373, -0.006395, -0.001066, -0.000533, -0.008527, -0.003464, -0.002665, -0.001332, -0.003198, -0.004263, -0.000266, -0.002931, -0.003464, -0.006662, -0.005862, -0.001599, -0.002665, -0.002132, -0.005063, -0.005063, -0.002665, -0.000533, -0.001066, 0, -0.000533, -0.002132, -0.004263, -0.004796, -0.006395, -0.003464, -0.002665, -0.005596, -0.002398, -0.002132, -0.002398, -0.002132, -0.000266, 0.001599, -0.002398, -0.004796, -0.002398, -0.001066, -0.002931, -0.002665, -0.002931, -0.002665, -0.00453, -0.00373, -0.004796, -0.001332, -0.001066, -0.004796, -0.002398, -0.00453, -0.001332, -0.005063, -0.002132, -0.005329, -0.002132, 0.000266, -0.003464, -0.006129, -0.005329, -0.00453, -0.002665, -0.004263]","[-0.047963, -0.044499, -0.048763, -0.048496, -0.046897, -0.046631, -0.047963, -0.049296, -0.04823, -0.049296, -0.049562, -0.050628, -0.04743, -0.046897, -0.047164, -0.045832, -0.046897, -0.049296, -0.045832, -0.047164, -0.044233, -0.045032, -0.047164, -0.048496, -0.045565, -0.04823, -0.047164, -0.049562, -0.04743, -0.048496, -0.047963, -0.045832, -0.050095, -0.043966, -0.049562, -0.046631, -0.047697, -0.047164, -0.046098, -0.051427, -0.044499, -0.050628, -0.04743, -0.047963, -0.045565, -0.046364, -0.04823, -0.045565, -0.049296, -0.047697, -0.049562, -0.047963, -0.049562, -0.046631, -0.050095, -0.046631, -0.045832, -0.046631, -0.047164, -0.044233, -0.048763, -0.047697, -0.046631, -0.049296, -0.046364, -0.047164, -0.048496, -0.046631, -0.04743, -0.049029, -0.045832, -0.047164, -0.04743, -0.046897, -0.046897, -0.04823, -0.047963, -0.04743, -0.046897, -0.049029, -0.045032, -0.043966, -0.046364, -0.045832, -0.044766, -0.045032, -0.0437, -0.046897, -0.047963, -0.044499, -0.044499, -0.049562, -0.047697, -0.052493, -0.049562, -0.046098, -0.047697, -0.049296, -0.046631, -0.049029, -0.047164, -0.047963, -0.045832, -0.045565, -0.049296, -0.049029, -0.047697, -0.047164, -0.046364, -0.050628, -0.045299, -0.045299, -0.050628, -0.049562, -0.050361, -0.045832, -0.049029, -0.045032, -0.049029, -0.047963, -0.042634, -0.049029, -0.046631, -0.04823, -0.047963, -0.046098, -0.047164, -0.04823, -0.045299, -0.051427, -0.048763, -0.045032, -0.048763, -0.047164, -0.045832, -0.046631, -0.050628, -0.045832, -0.045565, -0.045565, -0.043966, -0.046631, -0.046364, -0.04743, -0.046897, -0.04743, -0.047164, -0.046364, -0.045832, -0.049562, -0.047963, -0.040502, -0.045299, -0.045299, -0.045299, -0.048763, -0.046897, -0.044766, -0.047164, -0.046897, -0.045832, -0.049828, -0.046098, -0.045832, -0.048496, -0.043433, -0.046631, -0.047697, -0.048763, -0.04743, -0.045299, -0.048496, -0.047963, -0.04743, -0.047164, -0.043966, -0.04743, -0.04743, -0.046364, -0.047164, -0.048763, -0.045832, -0.047963, -0.044233, -0.048496, -0.046364, -0.047697, -0.049029, -0.045832, -0.046897, -0.047963, -0.047697, -0.049828, -0.045565, -0.048763, -0.045832, -0.051161, -0.045832, -0.048496, -0.046897, -0.043966, -0.044499, -0.049296, -0.045032, -0.047963, -0.04823, -0.047697, -0.048496, -0.049029, -0.046897, -0.042101, -0.049828, -0.046098, -0.048763, -0.045565, -0.048496, -0.047963, -0.049029, -0.051427, -0.049029, -0.04743, -0.047963, -0.047697, -0.050894, -0.04743, -0.045832, -0.044766, -0.043167, -0.047697, -0.046897, -0.046364, -0.04823, -0.047963, -0.045832, -0.046364, -0.049562, -0.046631, -0.047164, -0.049828, -0.045832, -0.046364, -0.046098, -0.046364, -0.046897, -0.045299, -0.049296, -0.045032, -0.047164, -0.050628, -0.049029, -0.051694, -0.049296, -0.046098, -0.047164, -0.047697, -0.051427, -0.049562, -0.044499, -0.046364, -0.047697, -0.047963, -0.047963, -0.048763, -0.04743, -0.046098, -0.044766, -0.046098, -0.045832, -0.049296, -0.047697, -0.04743, -0.045832, -0.046631, -0.04823, -0.047164, -0.045032, -0.04823, -0.045565, -0.047164, -0.047164, -0.049029, -0.047164, -0.046631, -0.045565, -0.046631, -0.051161, -0.047164, -0.04743, -0.049562, -0.0437, -0.046364, -0.0429, -0.048763, -0.047164, -0.047963, -0.047164, -0.046364, -0.047963, -0.048496, -0.046631]","[-0.01732, -0.022649, -0.023982, -0.022649, -0.022916, -0.019185, -0.025047, -0.021583, -0.02185, -0.022649, -0.019718, -0.022916, -0.019985, -0.021317, -0.024248, -0.023715, -0.021583, -0.019452, -0.020251, -0.020518, -0.020251, -0.021051, -0.020518, -0.025047, -0.019718, -0.022649, -0.02185, -0.019452, -0.02185, -0.024515, -0.022116, -0.022116, -0.024515, -0.022383, -0.019452, -0.023182, -0.020784, -0.023715, -0.023182, -0.022383, -0.020251, -0.021317, -0.020518, -0.022649, -0.021317, -0.022116, -0.019718, -0.022116, -0.022383, -0.021317, -0.020251, -0.021051, -0.020518, -0.022116, -0.022383, -0.02185, -0.021583, -0.023449, -0.020784, -0.019452, -0.019718, -0.020784, -0.023182, -0.021317, -0.021583, -0.021051, -0.022116, -0.021051, -0.023449, -0.020251, -0.022383, -0.021317, -0.023182, -0.020784, -0.021583, -0.021583, -0.021317, -0.020784, -0.019185, -0.019718, -0.022383, -0.021317, -0.024515, -0.022649, -0.022916, -0.020518, -0.021051, -0.019985, -0.02185, -0.019718, -0.019452, -0.022383, -0.020784, -0.021583, -0.018386, -0.021051, -0.021051, -0.021583, -0.021583, -0.021583, -0.023715, -0.023715, -0.018386, -0.021317, -0.023182, -0.025847, -0.020251, -0.022116, -0.021317, -0.021051, -0.021583, -0.022916, -0.020518, -0.025847, -0.017587, -0.020518, -0.022116, -0.022383, -0.020518, -0.021583, -0.019985, -0.021583, -0.024515, -0.021051, -0.017054, -0.020518, -0.021051, -0.022383, -0.021317, -0.021317, -0.022383, -0.019985, -0.022383, -0.021317, -0.020784, -0.023449, -0.022116, -0.023715, -0.017054, -0.020784, -0.019718, -0.021583, -0.023182, -0.020784, -0.023715, -0.020784, -0.019452, -0.019718, -0.021051, -0.019452, -0.023182, -0.020251, -0.019985, -0.018119, -0.020784, -0.020784, -0.02185, -0.021317, -0.024248, -0.021583, -0.020518, -0.021317, -0.024248, -0.023182, -0.021317, -0.019185, -0.022916, -0.022116, -0.020784, -0.022116, -0.020518, -0.021051, -0.019985, -0.023715, -0.019185, -0.024248, -0.022116, -0.022649, -0.022649, -0.021583, -0.019185, -0.019452, -0.023182, -0.021317, -0.023982, -0.018119, -0.017853, -0.020784, -0.020784, -0.02185, -0.020518, -0.022116, -0.020784, -0.020518, -0.022649, -0.018919, -0.02185, -0.024248, -0.021051, -0.020784, -0.020518, -0.022649, -0.022116, -0.020784, -0.022916, -0.019985, -0.018652, -0.023715, -0.018919, -0.020518, -0.021317, -0.021317, -0.022383, -0.02185, -0.019985, -0.021317, -0.019185, -0.021583, -0.023982, -0.02185, -0.019985, -0.019452, -0.020518, -0.019718, -0.021583, -0.021051, -0.023982, -0.022649, -0.023715, -0.020784, -0.023982, -0.022383, -0.019718, -0.022116, -0.021317, -0.022383, -0.020251, -0.019985, -0.020251, -0.021583, -0.020251, -0.022649, -0.024248, -0.021317, -0.019452, -0.021583, -0.020784, -0.023982, -0.019718, -0.019185, -0.020784, -0.020518, -0.020518, -0.020518, -0.020784, -0.019985, -0.023182, -0.023982, -0.021583, -0.019185, -0.020784, -0.021317, -0.021051, -0.022916, -0.021051, -0.022916, -0.019452, -0.020518, -0.022916, -0.020784, -0.023449, -0.02185, -0.019185, -0.022383, -0.020518, -0.022116, -0.022116, -0.02185, -0.02185, -0.019452, -0.019452, -0.020784, -0.018386, -0.017587, -0.019718, -0.021051, -0.021317, -0.020784, -0.020251, -0.023715, -0.021583, -0.021051, -0.021583, -0.023182, -0.020518, -0.022383, -0.018119, -0.024515, -0.022383, -0.025314]"
32591,"[-0.308852, -0.294487, -0.299275, -0.292093, -0.294487, -0.280122, -0.328006, -0.270545, -0.299275, -0.232238, -0.248997, -0.380678, -0.3304, -0.31364, -0.292093, -0.311246, -0.287304, -0.347159, -0.268151, -0.347159, -0.258574, -0.332794, -0.28491, -0.28491, -0.407014, -0.292093, -0.287304, -0.378284, -0.201113, -0.325611, -0.31364, -0.332794, -0.292093, -0.337582, -0.272939, -0.272939, -0.311246, -0.299275, -0.253785, -0.366313, -0.308852, -0.363919, -0.332794, -0.342371, -0.28491, -0.380678, -0.251391, -0.265756, -0.311246, -0.344765, -0.306458, -0.349553, -0.318429, -0.258574, -0.289698, -0.316035, -0.268151, -0.253785, -0.325611, -0.260968, -0.225055, -0.296881, -0.320823, -0.342371, -0.270545, -0.258574, -0.296881, -0.280122, -0.19393, -0.378284, -0.241814, -0.244209, -0.339977, -0.328006, -0.289698, -0.349553, -0.304064, -0.196325, -0.339977, -0.328006, -0.232238, -0.328006, -0.349553, -0.263362, -0.306458, -0.289698, -0.229843, -0.308852, -0.399832, -0.316035, -0.268151, -0.282516, -0.28491, -0.316035, -0.385466, -0.368707, -0.23942, -0.325611, -0.316035, -0.349553, -0.301669, -0.296881, -0.328006, -0.318429, -0.299275, -0.260968, -0.292093, -0.265756, -0.289698, -0.301669, -0.31364, -0.318429, -0.361524, -0.35913, -0.289698, -0.275333, -0.378284, -0.280122, -0.270545, -0.289698, -0.301669, -0.320823, -0.268151, -0.301669, -0.294487, -0.320823, -0.260968, -0.418985, -0.363919, -0.275333, -0.332794, -0.244209, -0.325611, -0.31364, -0.335188, -0.282516, -0.308852, -0.299275, -0.289698, -0.292093, -0.318429, -0.280122, -0.308852, -0.268151, -0.263362, -0.296881, -0.335188, -0.280122, -0.35913, -0.287304, -0.241814, -0.3304, -0.3304, -0.203507, -0.304064, -0.320823, -0.282516, -0.311246, -0.272939, -0.301669, -0.263362, -0.349553, -0.296881, -0.328006, -0.304064, -0.292093, -0.234632, -0.344765, -0.31364, -0.263362, -0.368707, -0.301669, -0.251391, -0.363919, -0.342371, -0.289698, -0.296881, -0.387861, -0.265756, -0.328006, -0.23942, -0.268151, -0.3304, -0.31364, -0.270545, -0.301669, -0.344765, -0.268151, -0.332794, -0.31364, -0.292093, -0.272939, -0.28491, -0.265756, -0.25618, -0.363919, -0.287304, -0.337582, -0.282516, -0.270545, -0.280122, -0.294487, -0.289698, -0.320823, -0.294487, -0.402226, -0.253785, -0.31364, -0.337582, -0.320823, -0.304064, -0.328006, -0.323217, -0.316035, -0.301669, -0.323217, -0.31364, -0.299275, -0.215478, -0.318429, -0.299275, -0.232238, -0.339977, -0.320823, -0.272939, -0.37589, -0.354342, -0.296881, -0.392649, -0.328006, -0.287304, -0.318429, -0.31364, -0.294487, -0.342371, -0.337582, -0.21069, -0.287304, -0.31364, -0.339977, -0.308852, -0.265756, -0.299275, -0.337582, -0.356736, -0.282516, -0.347159, -0.318429, -0.246603, -0.325611, -0.308852, -0.296881, -0.351948, -0.316035, -0.318429, -0.275333, -0.28491, -0.260968, -0.296881, -0.342371, -0.306458, -0.3304, -0.344765, -0.270545, -0.316035, -0.296881, -0.280122, -0.339977, -0.325611, -0.349553, -0.292093, -0.371101, -0.423774, -0.332794, -0.308852, -0.268151, -0.28491, -0.337582, -0.316035, -0.268151, -0.251391, -0.311246, -0.244209, -0.296881, -0.301669, -0.292093, -0.35913, -0.301669, -0.251391, -0.294487, -0.325611, -0.289698, -0.385466, -0.296881, -0.328006, -0.320823, -0.378284, -0.344765, -0.3304, -0.268151]","[-0.131681, -0.086191, -0.136469, -0.138864, -0.122104, -0.138864, -0.095768, -0.057461, -0.150835, -0.095768, -0.117316, -0.220267, -0.110133, -0.131681, -0.169988, -0.153229, -0.098162, -0.100556, -0.07422, -0.076614, -0.098162, -0.107739, -0.110133, -0.177171, -0.100556, -0.069432, -0.162806, -0.11971, -0.100556, -0.1652, -0.079009, -0.110133, -0.011971, -0.126893, -0.110133, -0.143652, -0.177171, -0.11971, -0.07422, -0.107739, -0.162806, -0.136469, -0.112527, -0.069432, -0.095768, -0.198719, -0.158017, -0.047884, -0.124498, -0.083797, -0.213084, -0.162806, -0.093374, -0.141258, -0.138864, -0.203507, -0.177171, -0.040701, -0.124498, -0.102951, -0.122104, -0.100556, -0.124498, -0.167594, -0.169988, -0.105345, -0.122104, -0.1652, -0.172383, -0.167594, -0.093374, -0.014365, -0.131681, -0.213084, -0.186748, -0.11971, -0.059855, -0.076614, -0.174777, -0.059855, -0.069432, -0.122104, -0.076614, -0.143652, -0.203507, -0.055067, -0.047884, -0.148441, -0.126893, -0.07422, -0.086191, -0.136469, -0.191536, -0.086191, -0.09098, -0.134075, -0.141258, -0.232238, -0.184354, -0.11971, -0.071826, -0.143652, -0.198719, -0.179565, -0.050278, -0.040701, -0.047884, -0.19393, -0.143652, -0.038307, -0.117316, -0.102951, -0.143652, -0.105345, -0.050278, -0.09098, -0.110133, -0.122104, -0.107739, -0.100556, -0.047884, -0.198719, -0.270545, -0.177171, -0.11971, -0.079009, -0.155623, -0.21069, -0.114922, -0.093374, -0.098162, -0.181959, -0.198719, -0.110133, -0.07422, -0.129287, -0.107739, -0.222661, -0.141258, -0.081403, -0.076614, -0.112527, -0.19393, -0.107739, -0.081403, -0.155623, -0.162806, -0.086191, -0.146046, -0.052672, -0.117316, -0.177171, -0.067038, -0.04549, -0.098162, -0.158017, -0.160412, -0.141258, -0.09098, -0.11971, -0.11971, -0.138864, -0.167594, -0.057461, -0.124498, -0.213084, -0.129287, -0.057461, -0.107739, -0.117316, -0.220267, -0.167594, -0.093374, -0.136469, -0.136469, -0.105345, -0.110133, -0.107739, -0.076614, -0.11971, -0.131681, -0.143652, -0.019154, -0.095768, -0.098162, -0.203507, -0.181959, -0.098162, -0.105345, -0.098162, -0.141258, -0.146046, -0.114922, -0.019154, -0.150835, -0.155623, -0.02873, -0.114922, -0.043096, -0.146046, -0.21069, -0.107739, -0.07422, -0.141258, -0.102951, -0.086191, -0.169988, -0.158017, -0.191536, -0.112527, -0.100556, -0.059855, -0.126893, -0.1652, -0.162806, -0.117316, -0.100556, -0.146046, -0.134075, -0.052672, -0.129287, -0.19393, -0.174777, -0.153229, -0.062249, -0.064643, -0.09098, -0.167594, -0.114922, -0.143652, -0.088585, -0.160412, -0.143652, -0.107739, -0.11971, -0.095768, -0.11971, -0.160412, -0.122104, -0.050278, -0.100556, -0.086191, -0.220267, -0.138864, -0.100556, -0.07422, -0.191536, -0.234632, -0.136469, -0.038307, -0.04549, -0.174777, -0.138864, -0.122104, -0.071826, -0.081403, -0.131681, -0.138864, -0.095768, -0.083797, -0.04549, -0.129287, -0.241814, -0.07422, -0.086191, -0.114922, -0.112527, -0.153229, -0.102951, -0.079009, -0.107739, -0.167594, -0.146046, -0.11971, -0.124498, -0.184354, -0.129287, -0.158017, -0.114922, -0.071826, -0.19393, -0.117316, -0.057461, -0.079009, -0.002394, -0.148441, -0.141258, -0.134075, -0.088585, -0.114922, -0.129287, -0.198719, -0.169988, -0.105345, -0.059855, -0.09098, -0.079009, -0.04549, -0.172383, -0.172383]","[9.528923, 9.490616, 9.466674, 9.449914, 9.471462, 9.452309, 9.497798, 9.488221, 9.44752, 9.622296, 9.627085, 9.483433, 9.552865, 9.509769, 9.52174, 9.435549, 9.526528, 9.394848, 9.435549, 9.464279, 9.485827, 9.545682, 9.442732, 9.507375, 9.600749, 9.49301, 9.526528, 9.5385, 9.483433, 9.591172, 9.533711, 9.507375, 9.471462, 9.392453, 9.466674, 9.588778, 9.55047, 9.583989, 9.507375, 9.334992, 9.488221, 9.502586, 9.380483, 9.44752, 9.526528, 9.485827, 9.512163, 9.435549, 9.485827, 9.502586, 9.560047, 9.514558, 9.481039, 9.464279, 9.469068, 9.591172, 9.591172, 9.55047, 9.485827, 9.519346, 9.500193, 9.569624, 9.560047, 9.524135, 9.574412, 9.531317, 9.466674, 9.516952, 9.49301, 9.466674, 9.488221, 9.502586, 9.564836, 9.502586, 9.615114, 9.452309, 9.469068, 9.485827, 9.615114, 9.576807, 9.490616, 9.512163, 9.433155, 9.528923, 9.526528, 9.433155, 9.411607, 9.512163, 9.488221, 9.471462, 9.526528, 9.483433, 9.552865, 9.464279, 9.574412, 9.421184, 9.502586, 9.531317, 9.461885, 9.452309, 9.423578, 9.526528, 9.507375, 9.497798, 9.433155, 9.476251, 9.52174, 9.514558, 9.488221, 9.481039, 9.445126, 9.52174, 9.49301, 9.598354, 9.52174, 9.509769, 9.512163, 9.583989, 9.483433, 9.454702, 9.387665, 9.598354, 9.49301, 9.531317, 9.519346, 9.478644, 9.545682, 9.526528, 9.564836, 9.394848, 9.473856, 9.583989, 9.622296, 9.524135, 9.528923, 9.452309, 9.512163, 9.52174, 9.502586, 9.454702, 9.502586, 9.466674, 9.497798, 9.43076, 9.385271, 9.452309, 9.478644, 9.560047, 9.531317, 9.500193, 9.404425, 9.476251, 9.452309, 9.368511, 9.528923, 9.540894, 9.514558, 9.531317, 9.459491, 9.469068, 9.495404, 9.593566, 9.473856, 9.504981, 9.488221, 9.55047, 9.516952, 9.464279, 9.404425, 9.459491, 9.557653, 9.552865, 9.490616, 9.437943, 9.483433, 9.454702, 9.574412, 9.500193, 9.404425, 9.469068, 9.490616, 9.500193, 9.509769, 9.55047, 9.461885, 9.483433, 9.497798, 9.581595, 9.528923, 9.514558, 9.5385, 9.591172, 9.555259, 9.464279, 9.552865, 9.52174, 9.516952, 9.409213, 9.500193, 9.507375, 9.579201, 9.583989, 9.442732, 9.490616, 9.536105, 9.442732, 9.385271, 9.595961, 9.560047, 9.540894, 9.557653, 9.524135, 9.483433, 9.497798, 9.562442, 9.497798, 9.540894, 9.464279, 9.586384, 9.507375, 9.44752, 9.483433, 9.572019, 9.555259, 9.540894, 9.411607, 9.502586, 9.588778, 9.488221, 9.617508, 9.461885, 9.485827, 9.548077, 9.473856, 9.466674, 9.502586, 9.533711, 9.576807, 9.49301, 9.406818, 9.509769, 9.514558, 9.56723, 9.526528, 9.504981, 9.461885, 9.485827, 9.5385, 9.564836, 9.44752, 9.473856, 9.512163, 9.555259, 9.593566, 9.497798, 9.512163, 9.483433, 9.631873, 9.488221, 9.548077, 9.507375, 9.572019, 9.56723, 9.5385, 9.545682, 9.485827, 9.490616, 9.497798, 9.490616, 9.414001, 9.461885, 9.380483, 9.514558, 9.574412, 9.445126, 9.507375, 9.583989, 9.519346, 9.557653, 9.531317, 9.490616, 9.473856, 9.507375, 9.40203, 9.452309, 9.55047, 9.548077, 9.437943, 9.49301, 9.631873, 9.512163, 9.588778, 9.634268, 9.543288, 9.512163, 9.44752, 9.485827, 9.440337, 9.507375, 9.562442]","[-0.003198, -0.003997, -0.00453, -0.007194, -0.003997, -0.002132, -0.001332, -0.003198, -0.002132, -0.002665, -0.003464, -0.00826, -0.005063, -0.003198, -0.002398, -0.004796, -0.002398, -0.00453, -0.002931, -0.001332, -0.004796, -0.000266, -0.002398, -0.001865, -0.002398, -0.002132, -0.003997, -0.00453, -0.005596, -0.000799, -0.004263, 0.001332, -0.001599, -0.002931, -0.00373, -0.002665, -0.003198, -0.00453, -0.005329, -0.002398, -0.002132, 0.001066, -0.001599, -0.00453, -0.005862, -0.000799, -0.002665, -0.00453, -0.00453, -0.000799, -0.00373, -0.006395, -0.003198, -0.002132, -0.000533, -0.000266, -0.002931, -0.003198, -0.002398, -0.003198, -0.003997, -0.002931, -0.005329, -0.003997, -0.004796, -0.004263, -0.005329, -0.003464, 0, -0.003464, -0.005063, -0.000799, -0.000266, -0.002132, -0.002931, -0.001865, -0.003464, -0.002665, -0.000533, -0.00373, -0.003198, -0.002665, -0.003464, -0.003464, -0.002931, -0.004263, -0.00453, 0, -0.00373, -0.000799, -0.003464, -0.002931, 0.000266, -0.004263, -0.002132, -0.003198, -0.00453, -0.002931, -0.001332, -0.003198, -0.00453, -0.005063, -0.002931, -0.000266, -0.002931, -0.002665, -0.004263, -0.001066, -0.002931, -0.006395, -0.002132, -0.003464, -0.001332, -0.001332, -0.00373, -0.00373, -0.001332, -0.001599, -0.001332, -0.00453, -0.00453, -0.002132, -0.003464, -0.005329, -0.003198, -0.000533, -0.001865, -0.002665, -0.003464, -0.002931, -0.001865, -0.002931, -0.00373, -0.001332, -0.005063, -0.002931, -0.00373, -0.004263, -0.00373, -0.004263, -0.005329, -0.002398, 0.000266, -0.001865, -0.004263, -0.006129, -0.003464, -0.006662, -0.003997, -0.000266, -0.004263, -0.001332, -0.000799, -0.005596, -0.002398, -0.006395, -0.003198, -0.003997, 0.000266, -0.003464, -0.00373, -0.003198, -0.002665, -0.003198, -0.003198, -0.001066, -0.002665, -0.004263, -0.002132, -0.002398, -0.002931, -0.001865, -0.002132, -0.000799, -0.002132, -0.001332, -0.002398, -0.003198, -0.004263, -0.003997, -0.003997, -0.001066, -0.002132, -0.002665, -0.003464, -0.002132, -0.00373, -0.007994, -0.002132, -0.003464, -0.002665, -0.000266, -0.002665, -0.005862, -0.002931, -0.004263, -0.002398, -0.002931, -0.00373, -0.000799, -0.003464, -0.001332, -0.002665, -0.004263, -0.003997, -0.002665, -0.002132, -0.001332, -0.000799, -0.003464, -0.001332, -0.003464, -0.00453, -0.00453, -0.002665, -0.005329, -0.003997, -0.005862, -0.000799, -0.00453, -0.002665, -0.002931, -0.003464, -0.005329, -0.003198, -0.00373, -0.003464, -0.000533, -0.000533, -0.001066, -0.002931, -0.002665, -0.003997, -0.003464, -0.001066, -0.005329, -0.00373, -0.002931, -0.003464, -0.003464, -0.001599, -0.005596, -0.000799, -0.005596, -0.005063, -0.006129, -0.000799, -0.004263, -0.004796, -0.006129, -0.003997, -0.001599, -0.00453, -0.002665, -0.00373, -0.002132, -0.003997, -0.005596, -0.003198, -0.001332, -0.002398, -0.006129, -0.001332, -0.003464, -0.007727, -0.004263, -0.000266, -0.003997, 0.001599, -0.006395, -0.005329, -0.001332, -0.005596, -0.004263, -0.001865, -0.000799, -0.001332, -0.001066, -0.003464, -0.002398, -0.002665, -0.001599, -0.005063, -0.003198, -0.003997, -0.001865, -0.004263, -0.002398, -0.00453, -0.001332, -0.006129, -0.006928, 0.001066, 0.000533, -0.002398, -0.005329, -0.005862, -0.002665, -0.006928, -0.00453]","[-0.047164, -0.04823, -0.047697, -0.04823, -0.049029, -0.048763, -0.046631, -0.046098, -0.048763, -0.044766, -0.049029, -0.046364, -0.046897, -0.046364, -0.045032, -0.045299, -0.044499, -0.048496, -0.046364, -0.046098, -0.045832, -0.047963, -0.045032, -0.046631, -0.045832, -0.046098, -0.045299, -0.046364, -0.045832, -0.045299, -0.048496, -0.04743, -0.046897, -0.049296, -0.04743, -0.046631, -0.047963, -0.045565, -0.050894, -0.04743, -0.046098, -0.049562, -0.047164, -0.046631, -0.049562, -0.047963, -0.050361, -0.04823, -0.049029, -0.045832, -0.04823, -0.044233, -0.044499, -0.046897, -0.04743, -0.048763, -0.047697, -0.04823, -0.048763, -0.046897, -0.0437, -0.046631, -0.046897, -0.044766, -0.050361, -0.04823, -0.047164, -0.043966, -0.046364, -0.04743, -0.049828, -0.047164, -0.043167, -0.04743, -0.045565, -0.047164, -0.044233, -0.04743, -0.046631, -0.047963, -0.045832, -0.048763, -0.047697, -0.04743, -0.04823, -0.049296, -0.047963, -0.045832, -0.045832, -0.04743, -0.046897, -0.049296, -0.045565, -0.047697, -0.045299, -0.049828, -0.045299, -0.046897, -0.04743, -0.050894, -0.047164, -0.047697, -0.043433, -0.04823, -0.044499, -0.047164, -0.045832, -0.046897, -0.04823, -0.047164, -0.045032, -0.044766, -0.047697, -0.050628, -0.047697, -0.045299, -0.052227, -0.050361, -0.048496, -0.04743, -0.043433, -0.046897, -0.043966, -0.04743, -0.048763, -0.048496, -0.04743, -0.046897, -0.04823, -0.044499, -0.046897, -0.046631, -0.046897, -0.046631, -0.0437, -0.045832, -0.045299, -0.044499, -0.04743, -0.049828, -0.049029, -0.04823, -0.04743, -0.047697, -0.044766, -0.047963, -0.04823, -0.046631, -0.046897, -0.048496, -0.044766, -0.046364, -0.046631, -0.04823, -0.045032, -0.049029, -0.047164, -0.048496, -0.045299, -0.047963, -0.048763, -0.049562, -0.048496, -0.049562, -0.047963, -0.047164, -0.049296, -0.048496, -0.045299, -0.044766, -0.045832, -0.045299, -0.047164, -0.047963, -0.047697, -0.048763, -0.046631, -0.047697, -0.045299, -0.04743, -0.043966, -0.046098, -0.047697, -0.047697, -0.051161, -0.047164, -0.048496, -0.048496, -0.044766, -0.047963, -0.046098, -0.04743, -0.04743, -0.049296, -0.044499, -0.046098, -0.047697, -0.04743, -0.043966, -0.046897, -0.046098, -0.046897, -0.045832, -0.046098, -0.049296, -0.044766, -0.046631, -0.048496, -0.050095, -0.046897, -0.046631, -0.046364, -0.046098, -0.046897, -0.045565, -0.049296, -0.048496, -0.049029, -0.048496, -0.046364, -0.046098, -0.045299, -0.047697, -0.045832, -0.046364, -0.047697, -0.04823, -0.045832, -0.050628, -0.046364, -0.050361, -0.045565, -0.047164, -0.049029, -0.04743, -0.047164, -0.045032, -0.047697, -0.046364, -0.0429, -0.045565, -0.046364, -0.047164, -0.047697, -0.042634, -0.045565, -0.049828, -0.043433, -0.049828, -0.048763, -0.048763, -0.046631, -0.045832, -0.047164, -0.048763, -0.049296, -0.044233, -0.047697, -0.047164, -0.045299, -0.045565, -0.046098, -0.046098, -0.046897, -0.047963, -0.048763, -0.046364, -0.049296, -0.046364, -0.045565, -0.048763, -0.049828, -0.049296, -0.045565, -0.04743, -0.046897, -0.046631, -0.047697, -0.046631, -0.047697, -0.047963, -0.046098, -0.048496, -0.047164, -0.045299, -0.045565, -0.049296, -0.045832, -0.049562, -0.046897, -0.045299, -0.047697, -0.048763, -0.046897, -0.049029, -0.045032, -0.046364, -0.046098, -0.046631, -0.04823]","[-0.019985, -0.018652, -0.022916, -0.021051, -0.021583, -0.018386, -0.021583, -0.018386, -0.021051, -0.023449, -0.021051, -0.021317, -0.017587, -0.022383, -0.022383, -0.023715, -0.025847, -0.020518, -0.018919, -0.021051, -0.022649, -0.021317, -0.022116, -0.024515, -0.021051, -0.022916, -0.024515, -0.021583, -0.021051, -0.020251, -0.02185, -0.017853, -0.019185, -0.025047, -0.022916, -0.022116, -0.018386, -0.023715, -0.021317, -0.023182, -0.019718, -0.020251, -0.021051, -0.022916, -0.022649, -0.020518, -0.023982, -0.019985, -0.020251, -0.02185, -0.021583, -0.022916, -0.022116, -0.018919, -0.018119, -0.022649, -0.021317, -0.02185, -0.021583, -0.022649, -0.021317, -0.017054, -0.018919, -0.019718, -0.02185, -0.021051, -0.02185, -0.020518, -0.023715, -0.019718, -0.022916, -0.02558, -0.021317, -0.021317, -0.018919, -0.024781, -0.022916, -0.019718, -0.023182, -0.021317, -0.018386, -0.024248, -0.021317, -0.022916, -0.022116, -0.018652, -0.020518, -0.022649, -0.020518, -0.023182, -0.022116, -0.019185, -0.022916, -0.021583, -0.020784, -0.021583, -0.021317, -0.017853, -0.022116, -0.020518, -0.022116, -0.020251, -0.022383, -0.023182, -0.020251, -0.018652, -0.019985, -0.020251, -0.02185, -0.020784, -0.020251, -0.025047, -0.024248, -0.021583, -0.022383, -0.020251, -0.022116, -0.018386, -0.018919, -0.023715, -0.022383, -0.019718, -0.021317, -0.022649, -0.024515, -0.019718, -0.021317, -0.019985, -0.019985, -0.02185, -0.020251, -0.020784, -0.021583, -0.021051, -0.023982, -0.021051, -0.019985, -0.018652, -0.022383, -0.022383, -0.021051, -0.023715, -0.023715, -0.022649, -0.02185, -0.018386, -0.022116, -0.022916, -0.018652, -0.017054, -0.019452, -0.020784, -0.022116, -0.022383, -0.023182, -0.018119, -0.022383, -0.019985, -0.022116, -0.02185, -0.020518, -0.022649, -0.023449, -0.020251, -0.020518, -0.024515, -0.023182, -0.022916, -0.020784, -0.020784, -0.020251, -0.023182, -0.020784, -0.021583, -0.022116, -0.023982, -0.019185, -0.02185, -0.021317, -0.02185, -0.022383, -0.021051, -0.021583, -0.021317, -0.019985, -0.02185, -0.019985, -0.019185, -0.020784, -0.020251, -0.02185, -0.022383, -0.019452, -0.02185, -0.021317, -0.022116, -0.023982, -0.02185, -0.023182, -0.023715, -0.021051, -0.022383, -0.022649, -0.020251, -0.022916, -0.02558, -0.019985, -0.019452, -0.021583, -0.018119, -0.023982, -0.022649, -0.018652, -0.023449, -0.022383, -0.022649, -0.021317, -0.02185, -0.024781, -0.022116, -0.018652, -0.019452, -0.018386, -0.021583, -0.021051, -0.020784, -0.023982, -0.021317, -0.021317, -0.021583, -0.024515, -0.020251, -0.02185, -0.019718, -0.019718, -0.022116, -0.022383, -0.017587, -0.020784, -0.021051, -0.019985, -0.020784, -0.021583, -0.02185, -0.020251, -0.022383, -0.020784, -0.021317, -0.022383, -0.021583, -0.021317, -0.021317, -0.021583, -0.021583, -0.022649, -0.020518, -0.023449, -0.023182, -0.021583, -0.022649, -0.019452, -0.022116, -0.022116, -0.02185, -0.02185, -0.022649, -0.019452, -0.021051, -0.023182, -0.019985, -0.021583, -0.024781, -0.020518, -0.021051, -0.019985, -0.024515, -0.022116, -0.019185, -0.023982, -0.019452, -0.023182, -0.019718, -0.021051, -0.024781, -0.020518, -0.022116, -0.022916, -0.022383, -0.019452, -0.018652, -0.020251, -0.020251, -0.019452, -0.020784, -0.020784, -0.022383, -0.023715, -0.017587, -0.020251, -0.019718]"
32596,"[-0.268151, -0.306458, -0.220267, -0.268151, -0.332794, -0.251391, -0.416591, -0.25618, -0.304064, -0.373495, -0.325611, -0.25618, -0.335188, -0.260968, -0.234632, -0.325611, -0.337582, -0.21069, -0.31364, -0.366313, -0.320823, -0.363919, -0.356736, -0.134075, -0.220267, -0.203507, -0.23942, -0.306458, -0.335188, -0.31364, -0.411803, -0.363919, -0.260968, -0.3304, -0.378284, -0.265756, -0.301669, -0.292093, -0.397437, -0.342371, -0.306458, -0.263362, -0.318429, -0.306458, -0.339977, -0.325611, -0.361524, -0.215478, -0.3304, -0.308852, -0.28491, -0.287304, -0.304064, -0.265756, -0.354342, -0.366313, -0.23942, -0.304064, -0.40462, -0.35913, -0.325611, -0.299275, -0.265756, -0.387861, -0.35913, -0.301669, -0.268151, -0.349553, -0.31364, -0.356736, -0.366313, -0.287304, -0.301669, -0.368707, -0.320823, -0.260968, -0.402226, -0.248997, -0.337582, -0.282516, -0.311246, -0.299275, -0.304064, -0.344765, -0.35913, -0.351948, -0.325611, -0.287304, -0.294487, -0.328006, -0.28491, -0.25618, -0.28491, -0.378284, -0.246603, -0.328006, -0.289698, -0.3304, -0.282516, -0.241814, -0.320823, -0.292093, -0.402226, -0.248997, -0.323217, -0.301669, -0.280122, -0.349553, -0.311246, -0.31364, -0.342371, -0.268151, -0.320823, -0.277727, -0.35913, -0.289698, -0.282516, -0.316035, -0.306458, -0.332794, -0.282516, -0.325611, -0.268151, -0.318429, -0.301669, -0.347159, -0.3304, -0.299275, -0.35913, -0.308852, -0.196325, -0.28491, -0.385466, -0.289698, -0.301669, -0.3304, -0.253785, -0.308852, -0.339977, -0.296881, -0.272939, -0.299275, -0.275333, -0.272939, -0.325611, -0.280122, -0.328006, -0.363919, -0.349553, -0.308852, -0.356736, -0.407014, -0.323217, -0.342371, -0.37589, -0.35913, -0.349553, -0.328006, -0.296881, -0.385466, -0.294487, -0.311246, -0.296881, -0.277727, -0.268151, -0.392649, -0.287304, -0.292093, -0.292093, -0.268151, -0.23942, -0.325611, -0.316035, -0.308852, -0.306458, -0.28491, -0.246603, -0.222661, -0.275333, -0.320823, -0.270545, -0.344765, -0.31364, -0.244209, -0.332794, -0.311246, -0.320823, -0.308852, -0.332794, -0.323217, -0.418985, -0.35913, -0.23942, -0.292093, -0.35913, -0.232238, -0.368707, -0.265756, -0.301669, -0.347159, -0.3304, -0.251391, -0.320823, -0.311246, -0.31364, -0.318429, -0.311246, -0.232238, -0.335188, -0.335188, -0.349553, -0.229843, -0.349553, -0.3304, -0.301669, -0.287304, -0.280122, -0.272939, -0.258574, -0.368707, -0.299275, -0.292093, -0.301669, -0.320823, -0.28491, -0.426168, -0.232238, -0.328006, -0.308852, -0.35913, -0.265756, -0.23942, -0.287304, -0.363919, -0.289698, -0.232238, -0.332794, -0.31364, -0.205901, -0.241814, -0.361524, -0.354342, -0.342371, -0.316035, -0.234632, -0.347159, -0.325611, -0.325611, -0.292093, -0.337582, -0.241814, -0.292093, -0.356736, -0.287304, -0.275333, -0.332794, -0.339977, -0.248997, -0.306458, -0.268151, -0.282516, -0.31364, -0.304064, -0.289698, -0.339977, -0.263362, -0.294487, -0.347159, -0.107739, -0.23942, -0.354342, -0.325611, -0.277727, -0.318429, -0.294487, -0.316035, -0.289698, -0.265756, -0.428562, -0.399832, -0.306458, -0.251391, -0.232238, -0.31364, -0.308852, -0.294487, -0.395043, -0.318429, -0.09098, -0.282516, -0.452504, -0.337582, -0.316035, -0.244209, -0.294487, -0.311246, -0.514753, -0.380678, -0.28491, -0.308852]","[0.040701, -0.114922, -0.117316, -0.086191, -0.124498, -0.100556, -0.196325, -0.134075, -0.081403, -0.1652, -0.124498, -0.110133, -0.227449, -0.057461, -0.098162, -0.169988, -0.07422, -0.014365, -0.04549, -0.079009, -0.172383, -0.146046, -0.131681, 0.052672, -0.366313, -0.004788, -0.122104, -0.129287, -0.177171, -0.146046, -0.260968, -0.052672, -0.086191, -0.064643, -0.169988, -0.191536, -0.134075, -0.146046, -0.138864, -0.1652, -0.026336, -0.050278, -0.129287, -0.177171, -0.105345, -0.093374, -0.095768, -0.035913, -0.129287, -0.093374, -0.040701, -0.100556, -0.122104, -0.124498, -0.174777, -0.148441, -0.067038, -0.141258, -0.220267, -0.131681, -0.055067, -0.160412, -0.148441, -0.129287, -0.162806, -0.079009, -0.088585, -0.146046, -0.126893, -0.129287, -0.09098, -0.105345, -0.153229, -0.191536, -0.081403, -0.076614, -0.088585, -0.081403, -0.1652, -0.071826, -0.043096, -0.124498, -0.150835, -0.112527, -0.122104, -0.110133, -0.160412, -0.155623, -0.136469, -0.079009, -0.107739, -0.172383, -0.126893, -0.105345, -0.09098, -0.081403, -0.107739, -0.143652, -0.131681, -0.100556, -0.079009, -0.098162, -0.07422, -0.033519, -0.1652, -0.19393, -0.124498, -0.141258, -0.098162, -0.110133, -0.189142, -0.167594, -0.110133, -0.162806, -0.179565, -0.021548, -0.160412, -0.112527, -0.196325, -0.189142, -0.131681, -0.105345, -0.088585, -0.131681, -0.110133, -0.088585, -0.186748, -0.134075, -0.071826, 0.007183, -0.117316, -0.143652, -0.114922, -0.031125, -0.141258, -0.179565, -0.177171, -0.126893, -0.069432, -0.019154, -0.122104, -0.191536, -0.088585, -0.038307, -0.141258, -0.205901, -0.052672, -0.059855, -0.124498, -0.131681, -0.100556, -0.098162, -0.112527, -0.107739, -0.131681, -0.1652, -0.179565, -0.134075, -0.143652, -0.1652, -0.160412, -0.033519, -0.088585, -0.088585, -0.215478, -0.131681, -0.155623, -0.019154, -0.117316, -0.201113, -0.124498, -0.059855, -0.093374, -0.110133, -0.110133, -0.102951, -0.016759, -0.126893, -0.148441, -0.181959, -0.122104, -0.050278, -0.026336, -0.143652, -0.181959, -0.148441, -0.011971, -0.155623, -0.186748, -0.158017, -0.143652, -0.088585, -0.059855, -0.160412, -0.150835, -0.112527, -0.07422, -0.129287, -0.117316, -0.227449, -0.047884, -0.07422, -0.143652, -0.196325, -0.162806, -0.083797, -0.04549, -0.11971, -0.174777, -0.129287, -0.02873, -0.162806, -0.208296, -0.184354, -0.136469, -0.122104, -0.112527, -0.050278, -0.158017, 0.007183, -0.09098, -0.222661, -0.241814, 0.07422, -0.134075, -0.229843, -0.117316, -0.114922, -0.093374, -0.064643, -0.136469, -0.126893, -0.088585, -0.114922, -0.059855, -0.079009, -0.172383, -0.138864, -0.019154, -0.086191, -0.158017, -0.162806, -0.07422, -0.083797, -0.088585, -0.181959, -0.112527, -0.112527, -0.062249, -0.052672, -0.131681, -0.134075, -0.098162, -0.055067, -0.076614, -0.129287, -0.150835, -0.110133, -0.079009, -0.100556, -0.181959, -0.150835, -0.079009, -0.131681, -0.11971, -0.198719, -0.162806, -0.035913, 0.040701, -0.169988, -0.21069, -0.131681, -0.131681, -0.102951, -0.196325, -0.150835, -0.205901, -0.237026, -0.268151, -0.191536, -0.141258, -0.040701, -0.126893, -0.143652, -0.153229, -0.076614, -0.038307, -0.141258, -0.356736, -0.047884, -0.258574, -0.196325, -0.043096, -0.064643, 0.033519, -0.124498, -0.172383, -0.143652, -0.222661, -0.105345]","[9.509769, 9.445126, 9.382876, 9.497798, 9.416395, 9.543288, 9.55047, 9.476251, 9.485827, 9.483433, 9.540894, 9.662998, 9.483433, 9.478644, 9.514558, 9.500193, 9.643845, 9.469068, 9.485827, 9.509769, 9.469068, 9.598354, 9.557653, 9.646238, 9.267955, 9.720459, 9.260772, 9.440337, 9.52174, 9.390059, 9.713276, 9.581595, 9.478644, 9.43076, 9.598354, 9.459491, 9.65821, 9.459491, 9.52174, 9.437943, 9.5385, 9.524135, 9.543288, 9.488221, 9.562442, 9.583989, 9.461885, 9.442732, 9.528923, 9.61272, 9.531317, 9.428367, 9.533711, 9.488221, 9.55047, 9.528923, 9.411607, 9.44752, 9.433155, 9.61272, 9.454702, 9.457097, 9.363723, 9.552865, 9.52174, 9.569624, 9.490616, 9.557653, 9.639056, 9.488221, 9.457097, 9.481039, 9.490616, 9.502586, 9.543288, 9.43076, 9.502586, 9.490616, 9.483433, 9.540894, 9.433155, 9.593566, 9.557653, 9.502586, 9.459491, 9.466674, 9.478644, 9.560047, 9.533711, 9.473856, 9.552865, 9.545682, 9.524135, 9.44752, 9.528923, 9.469068, 9.514558, 9.524135, 9.459491, 9.457097, 9.56723, 9.449914, 9.32781, 9.461885, 9.461885, 9.574412, 9.459491, 9.459491, 9.473856, 9.569624, 9.49301, 9.516952, 9.461885, 9.519346, 9.485827, 9.507375, 9.473856, 9.536105, 9.52174, 9.576807, 9.528923, 9.488221, 9.40203, 9.416395, 9.502586, 9.519346, 9.552865, 9.55047, 9.52174, 9.495404, 9.524135, 9.509769, 9.497798, 9.476251, 9.514558, 9.528923, 9.548077, 9.540894, 9.502586, 9.473856, 9.504981, 9.555259, 9.524135, 9.469068, 9.514558, 9.459491, 9.507375, 9.524135, 9.481039, 9.476251, 9.524135, 9.495404, 9.488221, 9.49301, 9.512163, 9.428367, 9.473856, 9.512163, 9.428367, 9.507375, 9.545682, 9.507375, 9.581595, 9.512163, 9.55047, 9.564836, 9.423578, 9.433155, 9.485827, 9.5385, 9.536105, 9.461885, 9.49301, 9.512163, 9.545682, 9.44752, 9.481039, 9.509769, 9.509769, 9.495404, 9.572019, 9.481039, 9.471462, 9.490616, 9.512163, 9.55047, 9.528923, 9.437943, 9.459491, 9.572019, 9.495404, 9.397242, 9.469068, 9.49301, 9.507375, 9.485827, 9.540894, 9.488221, 9.500193, 9.634268, 9.483433, 9.464279, 9.471462, 9.478644, 9.421184, 9.44752, 9.507375, 9.473856, 9.55047, 9.485827, 9.478644, 9.404425, 9.49301, 9.528923, 9.562442, 9.560047, 9.528923, 9.572019, 9.576807, 9.674969, 9.452309, 9.545682, 9.627085, 9.464279, 9.363723, 9.600749, 9.454702, 9.533711, 9.452309, 9.449914, 9.555259, 9.516952, 9.516952, 9.514558, 9.423578, 9.390059, 9.445126, 9.61272, 9.473856, 9.392453, 9.564836, 9.509769, 9.52174, 9.519346, 9.471462, 9.56723, 9.560047, 9.485827, 9.481039, 9.514558, 9.485827, 9.5385, 9.452309, 9.555259, 9.44752, 9.504981, 9.588778, 9.507375, 9.421184, 9.449914, 9.524135, 9.583989, 9.572019, 9.555259, 9.459491, 9.41879, 9.55047, 9.646238, 9.504981, 9.591172, 9.691729, 9.512163, 9.423578, 9.514558, 9.354146, 9.622296, 9.533711, 9.423578, 9.509769, 9.512163, 9.574412, 9.5385, 9.361329, 9.531317, 9.509769, 9.485827, 9.55047, 9.471462, 9.904813, 9.421184, 9.375694, 9.485827, 9.533711, 9.459491, 9.464279, 9.497798, 9.428367, 9.727641, 9.442732, 9.358934]","[-0.005063, -0.002665, -0.003997, -0.003464, -0.005063, -0.003198, -0.001066, -0.002931, -0.003198, -0.00373, -0.006395, -0.002665, -0.002931, -0.001865, -0.003198, -0.00373, -0.002931, -0.002931, -0.001599, -0.001066, -0.004263, 0, -0.001066, -0.004263, -0.008793, -0.003997, -0.003997, 0.002931, -0.003198, -0.004263, 0.004263, -0.006928, -0.005063, -0.00373, -0.004796, -0.001865, 0.000533, -0.003464, -0.002665, -0.006928, -0.001865, -0.005329, -0.00453, -0.002931, -0.003198, -0.005063, -0.004796, -0.006928, -0.00373, -0.00373, -0.002132, -0.002132, -0.004263, -0.001066, -0.006129, -0.003198, -0.002931, -0.002931, -0.002398, 0.000266, -0.003464, -0.004796, -0.002132, 0.000266, -0.003997, -0.00373, -0.005862, -0.003464, -0.00373, -0.005596, -0.002665, 0.001865, -0.00373, 0.000266, -0.003997, -0.002931, -0.005596, -0.002132, -0.001865, -0.003464, -0.002931, -0.005063, -0.002931, -0.001865, -0.004796, -0.002132, 0.000533, -0.003464, -0.001599, -0.000533, -0.005063, -0.00453, -0.001599, -0.003464, -0.003198, -0.004796, -0.005063, -0.00453, -0.00373, -0.000799, -0.002398, -0.005063, -0.002132, -0.004263, -0.001066, -0.001066, -0.003997, -0.005063, -0.002398, -0.000799, -0.00453, -0.002931, -0.003997, -0.001865, -0.005063, -0.006129, -0.004263, -0.00373, -0.000533, -0.003464, -0.000799, -0.006928, -0.001332, -0.001066, -0.00373, -0.002931, -0.000266, -0.000799, -0.000266, -0.003464, -0.002931, -0.002665, -0.005063, -0.004263, -0.00453, -0.002132, -0.002665, -0.003464, -0.002931, -0.001599, -0.005862, -0.003198, -0.001332, -0.006662, -0.002132, -0.00373, -0.000533, -0.005063, -0.001066, -0.000266, -0.002398, -0.002931, -0.002931, -0.000266, -0.003464, -0.000266, -0.002931, -0.001599, -0.005063, -0.00373, -0.003198, -0.003198, -0.001865, -0.002931, -0.001066, -0.005329, -0.002398, -0.002931, -0.001599, -0.002665, -0.003198, -0.003198, -0.004796, -0.00373, -0.003464, -0.001066, -0.001066, -0.000533, -0.003198, -0.002132, -0.001865, -0.001865, -0.002931, -0.001332, -0.003464, -0.000533, -0.003464, -0.002665, -0.002931, -0.002931, -0.002931, -0.002398, -0.001332, -0.002132, -0.000799, 0.000533, -0.005862, -0.002398, -0.002931, -0.002665, -0.005596, -0.003464, -0.005063, -0.00453, -0.002132, -0.001332, -0.004263, -0.002665, -0.003198, -0.003198, -0.004796, -0.004796, -0.003464, -0.002398, -0.001066, -0.001332, 0.000266, -0.001865, -0.003997, -0.00453, -0.005329, -0.005329, -0.000266, -0.006662, -0.004796, -0.00373, -0.003464, -0.004263, -0.004263, -0.000266, -0.004263, -0.001332, 0.000799, -0.00373, 0.001332, -0.003997, -0.005063, -0.005596, -0.002665, -0.000799, -0.003198, 0.000533, -0.001599, -0.003464, -0.00453, -0.002665, -0.000266, -0.002132, -0.004796, -0.004796, -0.003198, -0.000266, -0.002931, 0.001599, -0.005596, -0.002931, -0.003464, -0.001066, -0.003198, -0.006928, -0.002931, -0.001599, -0.004796, -0.002132, -0.004796, -0.00373, -0.001865, -0.002931, -0.007194, -0.002931, -0.002931, -0.000799, -0.002931, -0.002931, -0.004796, -0.003997, -0.005329, 0.001599, -0.001865, -0.004263, -0.005329, -0.005063, -0.005862, -0.002931, -0.005329, -0.005329, -0.013057, -0.007461, -0.006928, -0.002132, -0.00373, -0.002132, -0.005596, -0.005862, -0.003997, 0.002665, 0, -0.005063, -0.002665, -0.003198]","[-0.049029, -0.0437, -0.048763, -0.049029, -0.045565, -0.047963, -0.046631, -0.044499, -0.046631, -0.047697, -0.045832, -0.043433, -0.045299, -0.046364, -0.049029, -0.046897, -0.047164, -0.049828, -0.049029, -0.043966, -0.043433, -0.047697, -0.047164, -0.046364, -0.033841, -0.046364, -0.045299, -0.049029, -0.049029, -0.045832, -0.050361, -0.047697, -0.047697, -0.04823, -0.045032, -0.046897, -0.049296, -0.045832, -0.047164, -0.048496, -0.045299, -0.04743, -0.043966, -0.049029, -0.047164, -0.049029, -0.045299, -0.045032, -0.046098, -0.048763, -0.050361, -0.047697, -0.0437, -0.044233, -0.046364, -0.044499, -0.046631, -0.046364, -0.048763, -0.046897, -0.04743, -0.047963, -0.046631, -0.050095, -0.046631, -0.046897, -0.044766, -0.04743, -0.045032, -0.04823, -0.04823, -0.04743, -0.047697, -0.048763, -0.048763, -0.047697, -0.048763, -0.04743, -0.047963, -0.046631, -0.045565, -0.047697, -0.049029, -0.047164, -0.047963, -0.045299, -0.047164, -0.044233, -0.046364, -0.052227, -0.049562, -0.047697, -0.050361, -0.046631, -0.047164, -0.047164, -0.049296, -0.049562, -0.048496, -0.046631, -0.046631, -0.047164, -0.044233, -0.046631, -0.047963, -0.048496, -0.046631, -0.049562, -0.047697, -0.046897, -0.045032, -0.046098, -0.045832, -0.046897, -0.043167, -0.04743, -0.047963, -0.045832, -0.045032, -0.048496, -0.048496, -0.049562, -0.047164, -0.04743, -0.044499, -0.043966, -0.046631, -0.048496, -0.047963, -0.050894, -0.044499, -0.045032, -0.043966, -0.046897, -0.045565, -0.049562, -0.04743, -0.047963, -0.044766, -0.04823, -0.048496, -0.049828, -0.046897, -0.045832, -0.046897, -0.047164, -0.047164, -0.049296, -0.04743, -0.047164, -0.049296, -0.046897, -0.047963, -0.048496, -0.046631, -0.049296, -0.049828, -0.048496, -0.045299, -0.043966, -0.046364, -0.046364, -0.046364, -0.046631, -0.050628, -0.047963, -0.046364, -0.047697, -0.04743, -0.049029, -0.049562, -0.047164, -0.049296, -0.04823, -0.049562, -0.046631, -0.051694, -0.046631, -0.047164, -0.046364, -0.046098, -0.045299, -0.047963, -0.048496, -0.047963, -0.048496, -0.046631, -0.045832, -0.048763, -0.04743, -0.04823, -0.043966, -0.045032, -0.045832, -0.045032, -0.046631, -0.046897, -0.043966, -0.046631, -0.047963, -0.047164, -0.046098, -0.046631, -0.044766, -0.046098, -0.05196, -0.046897, -0.045565, -0.051161, -0.044766, -0.050628, -0.046897, -0.04823, -0.049828, -0.048496, -0.046897, -0.047164, -0.04823, -0.047697, -0.04743, -0.043966, -0.046098, -0.045032, -0.048496, -0.04743, -0.048496, -0.045832, -0.049828, -0.045299, -0.043433, -0.04743, -0.046897, -0.047164, -0.047697, -0.048496, -0.046897, -0.045299, -0.049029, -0.047963, -0.045299, -0.046631, -0.048763, -0.046098, -0.047164, -0.04743, -0.046364, -0.050095, -0.049029, -0.046631, -0.044766, -0.044233, -0.045032, -0.051427, -0.04823, -0.049296, -0.046631, -0.046897, -0.049828, -0.047697, -0.046631, -0.046631, -0.047963, -0.04823, -0.04743, -0.045565, -0.045832, -0.043966, -0.051161, -0.045832, -0.0429, -0.044766, -0.048763, -0.045832, -0.047164, -0.050628, -0.052493, -0.043966, -0.051161, -0.042368, -0.040502, -0.038904, -0.039703, -0.040502, -0.0437, -0.041302, -0.039703, -0.037838, -0.037571, -0.045565, -0.046897, -0.044499, -0.041568, -0.045565, -0.042368, -0.047697, -0.042368, -0.050095, -0.051694, -0.0437, -0.045299]","[-0.021051, -0.018386, -0.022383, -0.018386, -0.022649, -0.021583, -0.020251, -0.020784, -0.020251, -0.024248, -0.019718, -0.020518, -0.022116, -0.020251, -0.019985, -0.022916, -0.02185, -0.020784, -0.022116, -0.021317, -0.022916, -0.020784, -0.02185, -0.021051, -0.01732, -0.021317, -0.023715, -0.022916, -0.023982, -0.021317, -0.020251, -0.023182, -0.023982, -0.019718, -0.020251, -0.021051, -0.018119, -0.023182, -0.024248, -0.023715, -0.022116, -0.021051, -0.019718, -0.025047, -0.02185, -0.023182, -0.019718, -0.019452, -0.024248, -0.020518, -0.022116, -0.021051, -0.020251, -0.022383, -0.023449, -0.023182, -0.021051, -0.019718, -0.021583, -0.023182, -0.024781, -0.022649, -0.018652, -0.022383, -0.022649, -0.021051, -0.022383, -0.023182, -0.020784, -0.021583, -0.02185, -0.018386, -0.023449, -0.022383, -0.021583, -0.020784, -0.021583, -0.018919, -0.019985, -0.022116, -0.018386, -0.021051, -0.022116, -0.022649, -0.019718, -0.022649, -0.019985, -0.020784, -0.022383, -0.019718, -0.021317, -0.021051, -0.018652, -0.022116, -0.019718, -0.019452, -0.021583, -0.021051, -0.022383, -0.021051, -0.022116, -0.022383, -0.018386, -0.022383, -0.024515, -0.021317, -0.018919, -0.019452, -0.022649, -0.019452, -0.018119, -0.019985, -0.021051, -0.022116, -0.02185, -0.021051, -0.025047, -0.021583, -0.021317, -0.020251, -0.020251, -0.020784, -0.021317, -0.021051, -0.019985, -0.019185, -0.021051, -0.017853, -0.022116, -0.022383, -0.022116, -0.022649, -0.022916, -0.021583, -0.021317, -0.022116, -0.019718, -0.021317, -0.018119, -0.022649, -0.019185, -0.019185, -0.021317, -0.024248, -0.022649, -0.020518, -0.020251, -0.022383, -0.024515, -0.021051, -0.019718, -0.02185, -0.023182, -0.020251, -0.024781, -0.020784, -0.021583, -0.023715, -0.021583, -0.020251, -0.024781, -0.02185, -0.024781, -0.023182, -0.02185, -0.019985, -0.024781, -0.021583, -0.022383, -0.023715, -0.021317, -0.020518, -0.020518, -0.02185, -0.023715, -0.021583, -0.018919, -0.02185, -0.022383, -0.022383, -0.023182, -0.021051, -0.021583, -0.019185, -0.021051, -0.019718, -0.022383, -0.022116, -0.024248, -0.020784, -0.018652, -0.022116, -0.021317, -0.023982, -0.020784, -0.021051, -0.020518, -0.021583, -0.021317, -0.021583, -0.022116, -0.021051, -0.021583, -0.023449, -0.024781, -0.021583, -0.018119, -0.025047, -0.021583, -0.023182, -0.022383, -0.022383, -0.021583, -0.023449, -0.021051, -0.016254, -0.021051, -0.021051, -0.022383, -0.023715, -0.021583, -0.022116, -0.020784, -0.023449, -0.020251, -0.022116, -0.019452, -0.021583, -0.021583, -0.022383, -0.020518, -0.019985, -0.022116, -0.021583, -0.022649, -0.020784, -0.018119, -0.021583, -0.021051, -0.019185, -0.018919, -0.022116, -0.02558, -0.018919, -0.019985, -0.022649, -0.020784, -0.020251, -0.020251, -0.021317, -0.022116, -0.021317, -0.020784, -0.022649, -0.021051, -0.020518, -0.022116, -0.023182, -0.019985, -0.021583, -0.016787, -0.02185, -0.020784, -0.02185, -0.023715, -0.018919, -0.022383, -0.021317, -0.019452, -0.019718, -0.021317, -0.021317, -0.019718, -0.018386, -0.024248, -0.021317, -0.019452, -0.022916, -0.02185, -0.023715, -0.023449, -0.020251, -0.022916, -0.022916, -0.019452, -0.023715, -0.021051, -0.023449, -0.019452, -0.019985, -0.021583, -0.022916, -0.018386, -0.020784, -0.022383, -0.018119, -0.019452, -0.024515, -0.020251, -0.02185]"
32600,"[-0.301669, -0.28491, -0.361524, -0.316035, -0.227449, -0.351948, -0.354342, -0.174777, -0.3304, -0.373495, -0.316035, -0.294487, 0.270545, -0.514753, -0.339977, -0.289698, -0.287304, -0.332794, -0.299275, -0.241814, -0.248997, -0.497994, 0.038307, 0.081403, -0.603339, -0.220267, -0.45011, -0.426168, -0.146046, -0.474052, -0.215478, -0.282516, -0.397437, -0.304064, -0.399832, -0.304064, -0.342371, -0.45011, -0.335188, -0.56982, -0.339977, -0.31364, -0.100556, -0.064643, -0.371101, -0.399832, -0.225055, -0.387861, -0.3304, -0.248997, -0.208296, -0.347159, -0.311246, -0.505177, -0.31364, -0.464475, -0.342371, -0.316035, -0.311246, -0.296881, -0.31364, -0.325611, -0.306458, -0.349553, -0.328006, -0.141258, -0.363919, -0.162806, -0.31364, -0.304064, -0.181959, -0.258574, -0.383072, -0.390255, -0.136469, -0.505177, -0.172383, -0.411803, -0.205901, -0.339977, -0.258574, -0.316035, -0.299275, -0.25618, -0.28491, -0.299275, -0.215478, -0.656011, -0.248997, -0.356736, -0.25618, -0.430956, -0.371101, -0.335188, -0.328006, -0.215478, -0.31364, -0.380678, -0.287304, -0.28491, -0.328006, -0.3304, -0.296881, -0.280122, -0.251391, -0.347159, -0.232238, -0.363919, -0.265756, -0.390255, -0.323217, -0.258574, -0.344765, -0.272939, -0.37589, -0.4956, -0.342371, -0.304064, -0.268151, -0.397437, -0.150835, -0.466869, -0.213084, -0.31364, -0.363919, -0.301669, -0.430956, -0.380678, -0.3304, -0.301669, -0.351948, -0.28491, -0.390255, -0.268151, -0.220267, -0.3304, -0.378284, -0.229843, -0.349553, -0.280122, -0.347159, -0.244209, -0.191536, -0.282516, -0.385466, -0.282516, -0.447716, -0.246603, -0.232238, -0.366313, -0.158017, -0.418985, -0.399832, -0.28491, -0.459687, -0.184354, -0.411803, -0.162806, -0.354342, -0.289698, -0.320823, -0.373495, -0.246603, -0.146046, -0.859518, -0.129287, -0.457293, -0.222661, -0.258574, -0.270545, -0.268151, -0.294487, -0.246603, -0.37589, -0.277727, -0.246603, -0.332794, -0.316035, -0.332794, 0.124498, -0.28491, -0.407014, -0.311246, -0.229843, -0.282516, -0.354342, -0.213084, -0.28491, -0.320823, -0.229843, -0.160412, -0.392649, -0.308852, -0.25618, -0.282516, -0.038307, -0.234632, -0.064643, -0.335188, -0.234632, -0.323217, -0.272939, -0.196325, -0.371101, -0.292093, -0.241814, -0.42138, -0.426168, -0.275333, -0.342371, -0.390255, -0.354342, -0.292093, -0.258574, -0.378284, -0.282516, -0.349553, -0.280122, -0.299275, -0.390255, -0.488417, -0.280122, -0.232238, -0.344765, -0.28491, -0.287304, -0.416591, -0.344765, -0.342371, -0.347159, -0.325611, -0.301669, -0.349553, -0.280122, -0.31364, -0.347159, -0.282516, -0.395043, -0.277727, -0.553061, -1.30484, 0.11971, -0.529119, -0.272939, -0.433351, -0.320823, -0.272939, -0.414197, -0.399832, -0.383072, -0.275333, -0.244209, -0.270545, -0.399832, -0.318429, -0.227449, -0.308852, -0.337582, -0.337582, -0.344765, -0.320823, -0.208296, -0.402226, -0.306458, -0.289698, -0.301669, -0.325611, -0.40462, -0.356736, -0.308852, -0.28491, -0.37589, -0.280122, -0.260968, -0.371101, -0.320823, -0.311246, -0.258574, -0.325611, -0.146046, -0.213084, -0.3304, -0.263362, -0.260968, -0.3304, -0.325611, -0.265756, -0.335188, -0.28491, -0.282516, -0.270545, -0.122104, -0.402226, -0.069432, -0.45011, -0.110133, -0.526724, -0.201113, -0.418985, -0.268151]","[-0.059855, -0.222661, -0.110133, -0.086191, -0.095768, -0.083797, -0.138864, -0.100556, -0.129287, -0.019154, 0.040701, -0.146046, 0.512359, -0.430956, -0.069432, -0.031125, -0.155623, -0.150835, -0.134075, -0.1652, -0.04549, -0.519542, 0.438139, -0.158017, -0.213084, -0.105345, -0.292093, -0.158017, -0.031125, -0.316035, 0.11971, -0.177171, -0.169988, -0.181959, -0.102951, -0.11971, -0.105345, -0.141258, -0.222661, -0.47884, -0.069432, -0.277727, 0.023942, -0.038307, -0.143652, -0.143652, -0.122104, -0.179565, -0.189142, -0.136469, -0.011971, -0.19393, -0.196325, -0.162806, -0.31364, -0.131681, -0.100556, -0.052672, -0.093374, -0.057461, -0.148441, -0.100556, -0.107739, -0.122104, 0, 0.004788, -0.126893, -0.064643, -0.098162, -0.177171, -0.021548, -0.021548, -0.148441, -0.217872, 0.023942, -0.277727, -0.055067, -0.093374, -0.122104, -0.079009, -0.124498, -0.129287, -0.148441, -0.141258, -0.088585, -0.076614, -0.083797, -0.464475, 0.263362, -0.196325, -0.107739, -0.076614, -0.191536, -0.201113, -0.112527, -0.09098, -0.095768, -0.160412, -0.203507, -0.098162, -0.138864, -0.079009, -0.126893, -0.150835, -0.114922, -0.136469, -0.081403, -0.079009, -0.07422, -0.07422, -0.141258, -0.126893, -0.136469, -0.150835, -0.148441, -0.263362, -0.191536, -0.026336, -0.201113, -0.079009, -0.050278, -0.311246, -0.055067, -0.126893, -0.114922, -0.102951, -0.289698, -0.079009, -0.083797, -0.153229, -0.155623, -0.155623, -0.203507, -0.203507, -0.019154, -0.169988, -0.172383, -0.07422, -0.186748, -0.153229, -0.150835, -0.11971, -0.064643, -0.081403, -0.107739, -0.122104, -0.134075, -0.129287, -0.141258, -0.105345, 0.191536, -0.162806, -0.426168, 0.047884, -0.270545, -0.172383, -0.110133, -0.081403, -0.071826, -0.174777, -0.189142, -0.095768, -0.021548, 0.301669, -0.679953, 0.105345, -0.031125, -0.289698, -0.04549, -0.136469, -0.07422, -0.055067, -0.07422, -0.169988, -0.11971, -0.153229, -0.07422, -0.026336, -0.342371, 0.332794, -0.270545, -0.095768, -0.131681, -0.155623, -0.064643, -0.114922, -0.095768, -0.102951, -0.098162, -0.105345, -0.150835, -0.04549, -0.107739, -0.004788, -0.126893, 0, -0.059855, 0.057461, -0.205901, -0.126893, -0.100556, -0.019154, -0.07422, -0.184354, -0.11971, -0.112527, -0.162806, -0.076614, -0.136469, -0.098162, -0.177171, -0.064643, -0.196325, -0.110133, -0.181959, -0.105345, -0.112527, -0.126893, -0.11971, -0.100556, -0.112527, 0.014365, 0.062249, -0.184354, -0.107739, -0.107739, -0.220267, -0.055067, -0.09098, -0.155623, -0.098162, -0.217872, -0.177171, -0.131681, -0.093374, -0.229843, -0.07422, -0.141258, -0.162806, -0.050278, -1.199495, -0.227449, -0.11971, -0.265756, -0.232238, -0.227449, 0.035913, -0.282516, -0.201113, -0.153229, -0.09098, -0.126893, -0.083797, -0.11971, -0.174777, -0.100556, -0.126893, -0.131681, -0.138864, -0.1652, -0.105345, -0.124498, -0.189142, -0.191536, -0.035913, -0.100556, -0.076614, -0.136469, -0.150835, -0.138864, -0.114922, -0.086191, -0.079009, -0.177171, -0.196325, -0.07422, -0.138864, -0.057461, -0.11971, -0.019154, -0.07422, -0.131681, -0.191536, -0.076614, -0.150835, -0.093374, -0.110133, -0.229843, -0.1652, -0.062249, -0.129287, 0.057461, -0.356736, -0.004788, -0.299275, -0.071826, -0.146046, -0.306458, -0.059855, -0.134075]","[9.461885, 9.617508, 9.531317, 9.531317, 9.543288, 9.481039, 9.366117, 9.500193, 9.356541, 9.387665, 9.583989, 9.600749, 9.694122, 8.803479, 9.68694, 9.375694, 9.428367, 9.526528, 9.526528, 9.421184, 9.49301, 10.75236, 8.999804, 9.244013, 9.648633, 9.25359, 9.665392, 9.5385, 9.524135, 9.210494, 9.749189, 9.40203, 9.452309, 9.531317, 9.524135, 9.490616, 9.437943, 9.454702, 9.387665, 9.277532, 9.49301, 9.466674, 9.548077, 9.598354, 9.49301, 9.55047, 9.55047, 9.500193, 9.497798, 9.531317, 9.514558, 9.514558, 9.473856, 9.370906, 9.433155, 9.500193, 9.540894, 9.488221, 9.469068, 9.557653, 9.622296, 9.483433, 9.504981, 9.591172, 9.615114, 9.727641, 9.301474, 9.5385, 9.64145, 9.421184, 9.560047, 9.469068, 9.471462, 9.330204, 9.931149, 9.105149, 9.955091, 9.363723, 9.52174, 9.481039, 9.5385, 9.502586, 9.466674, 9.476251, 9.497798, 9.375694, 8.722076, 9.488221, 9.684546, 9.346964, 9.555259, 9.636662, 9.512163, 9.706094, 9.615114, 9.44752, 9.488221, 9.588778, 9.5385, 9.526528, 9.524135, 9.52174, 9.454702, 9.531317, 9.524135, 9.560047, 9.557653, 9.569624, 9.481039, 9.452309, 9.519346, 9.454702, 9.615114, 9.416395, 9.483433, 9.552865, 9.706094, 9.516952, 9.481039, 9.560047, 9.655815, 9.375694, 9.605537, 9.552865, 9.464279, 9.583989, 9.349358, 9.586384, 9.485827, 9.382876, 9.483433, 9.540894, 9.428367, 9.586384, 9.49301, 9.540894, 9.531317, 9.507375, 9.516952, 9.519346, 9.540894, 9.495404, 9.55047, 9.603143, 9.461885, 9.516952, 9.514558, 9.552865, 9.579201, 9.387665, 9.694122, 9.244013, 9.55047, 9.284714, 9.437943, 9.507375, 9.421184, 9.543288, 9.464279, 9.49301, 9.5385, 9.442732, 9.619903, 9.636662, 9.306262, 9.40203, 9.595961, 9.476251, 9.497798, 9.593566, 9.552865, 9.301474, 9.481039, 9.476251, 9.509769, 9.516952, 9.509769, 9.516952, 9.346964, 9.986216, 9.411607, 9.696517, 9.497798, 9.442732, 9.533711, 9.507375, 9.512163, 9.464279, 9.617508, 9.665392, 9.392453, 9.593566, 9.504981, 9.583989, 9.576807, 9.734824, 9.409213, 9.746795, 9.32781, 9.610326, 9.634268, 9.44752, 9.52174, 9.55047, 9.607931, 9.504981, 9.414001, 9.478644, 9.588778, 9.507375, 9.394848, 9.471462, 9.406818, 9.457097, 9.600749, 9.526528, 9.52174, 9.504981, 9.557653, 9.481039, 9.454702, 9.516952, 9.502586, 9.40203, 9.572019, 9.500193, 9.524135, 9.52174, 9.598354, 9.354146, 9.543288, 9.579201, 9.349358, 9.569624, 9.464279, 9.552865, 9.512163, 9.44752, 9.368511, 9.495404, 8.367735, 10.24479, 9.260772, 9.394848, 9.540894, 9.392453, 9.449914, 9.500193, 9.533711, 9.483433, 9.516952, 9.44752, 9.471462, 9.583989, 9.440337, 9.607931, 9.457097, 9.562442, 9.483433, 9.481039, 9.528923, 9.497798, 9.583989, 9.562442, 9.617508, 9.437943, 9.512163, 9.394848, 9.5385, 9.495404, 9.500193, 9.514558, 9.528923, 9.548077, 9.49301, 9.526528, 9.414001, 9.473856, 9.516952, 9.478644, 9.366117, 9.531317, 9.445126, 9.52174, 9.526528, 9.478644, 9.576807, 9.483433, 9.52174, 9.583989, 9.469068, 9.718064, 9.246407, 9.854534, 9.313444, 9.998186, 9.208099, 9.564836, 9.593566, 9.540894]","[-0.002398, -0.00373, -0.002132, -0.003198, -0.003198, -0.004796, -0.002398, -0.00373, 0.000799, -0.006395, -0.010392, -0.000533, -0.001599, -0.000533, -0.001865, -0.007727, -0.005329, -0.002398, -0.007194, 0.000799, -0.005063, -0.012524, -0.006928, 0.002398, -0.009326, -0.001865, -0.007194, -0.001332, -0.003997, 0.001599, -0.007727, 0.001332, -0.002665, -0.003464, -0.002931, -0.003198, -0.005862, -0.004263, -0.001332, 0.004796, -0.002931, -0.000799, -0.00906, -0.000533, -0.004796, -0.000799, -0.000533, -0.001332, -0.001865, -0.003997, -0.007727, 0, 0.002398, -0.002665, 0.002398, -0.007194, -0.003464, -0.002931, -0.002931, -0.006129, -0.001066, 0.002132, -0.001332, -0.002665, -0.003198, -0.005862, 0.000799, -0.003464, -0.00453, 0.001066, -0.003464, -0.002665, -0.001865, -0.002398, 0.003997, -0.01279, -0.000799, -0.00373, -0.006928, -0.002132, -0.00373, -0.002931, -0.001599, -0.002398, -0.003464, 0.003464, 0.015455, -0.014389, -0.002931, -0.005862, -0.007727, -0.004263, -0.001865, -0.001865, -0.006395, -0.003997, -0.000533, -0.00373, -0.003997, -0.005063, -0.003464, -0.002132, -0.001865, -0.002132, -0.002132, -0.004796, -0.000266, -0.002132, 0.000266, -0.005862, -0.004796, -0.006129, -0.001066, -0.001865, -0.003464, -0.005063, -0.00373, -0.002931, -0.002398, -0.002132, -0.003198, -0.003198, -0.001332, -0.004263, -0.000533, -0.004263, -0.00373, -0.005596, -0.003464, -0.003198, -0.001599, 0.000266, -0.002931, -0.000799, -0.006395, -0.001066, -0.002132, -0.004263, -0.003198, -0.001865, -0.005596, -0.003997, -0.004263, -0.00373, -0.001332, -0.00373, -0.004263, -0.00373, -0.005596, -0.002931, -0.007194, 0.004263, 0.003997, -0.005329, -0.002665, -0.00453, -0.003997, -0.002931, -0.005063, -0.003464, -0.00373, -0.003198, -0.00453, -0.006662, 0.002931, 0.001599, -0.014922, 0.003198, -0.005862, -0.003464, -0.005329, -0.003997, -0.000266, -0.003198, -0.003198, 0.001332, 0, -0.003464, 0.001066, -0.013856, 0.00453, -0.006928, -0.006129, -0.001599, -0.002132, -0.001332, -0.000266, -0.003997, 0.001332, -0.005862, 0, 0.000266, -0.006662, -0.006395, -0.004796, -0.008793, 0, -0.006928, -0.002398, -0.006395, -0.000533, -0.003464, -0.003464, -0.005063, -0.002665, -0.000799, -0.003997, -0.001865, -0.005063, -0.001066, 0.002398, -0.003198, -0.001865, -0.002665, -0.001599, -0.003997, -0.005063, -0.005063, -0.002398, -0.001599, -0.001332, -0.007194, -0.008527, -0.000799, -0.007727, -0.002665, -0.005063, -0.005329, -0.006129, -0.005596, -0.004263, -0.002132, -0.000266, -0.00373, -0.00453, -0.003997, -0.00453, -0.007461, 0.001332, 0.005596, 0.021051, 0.001332, -0.000799, 0.003198, -0.003997, -0.001865, -0.009326, -0.000533, -0.004796, 0.002132, -0.003997, -0.002931, -0.002398, -0.001599, -0.000799, -0.002398, 0, -0.002931, -0.001865, -0.000799, -0.001332, -0.005063, -0.002931, -0.002132, -0.007727, -0.005329, -0.005063, -0.002398, -0.006395, -0.001865, 0.002132, -0.004263, -0.002398, -0.003997, -0.00373, -0.004263, -0.006395, 0.001599, -0.000266, -0.005596, -0.005063, -0.003997, -0.006129, -0.000266, -0.003997, -0.002132, -0.002132, -0.00453, -0.003997, -0.004263, -0.002398, -0.006395, -0.002665, -0.005329, -0.00453, 0.004263, -0.005063, 0.003198, -0.00453, -0.002931]","[-0.05196, -0.046098, -0.047697, -0.04743, -0.046631, -0.046098, -0.044233, -0.045299, -0.050095, -0.043433, -0.043167, -0.050628, -0.043966, -0.054891, -0.042368, -0.046897, -0.048763, -0.046631, -0.043433, -0.044766, -0.041835, -0.040769, -0.054358, -0.043966, -0.044766, -0.042368, -0.045299, -0.045565, -0.043433, -0.049828, -0.038637, -0.046098, -0.04823, -0.046364, -0.04823, -0.047963, -0.045032, -0.04823, -0.047697, -0.052227, -0.045565, -0.051427, -0.043167, -0.043966, -0.044499, -0.051161, -0.04743, -0.0437, -0.049296, -0.044766, -0.045565, -0.051161, -0.048763, -0.049828, -0.049296, -0.051427, -0.046098, -0.043433, -0.046897, -0.044233, -0.045032, -0.04823, -0.045832, -0.047963, -0.049828, -0.042634, -0.04743, -0.042368, -0.045032, -0.044233, -0.047164, -0.049296, -0.048496, -0.044766, -0.051694, -0.045299, -0.046098, -0.048763, -0.042634, -0.048763, -0.047963, -0.043966, -0.047164, -0.051427, -0.045032, -0.048496, -0.048763, -0.039436, -0.04823, -0.046098, -0.046098, -0.046897, -0.046631, -0.051427, -0.046098, -0.046897, -0.048496, -0.045832, -0.047963, -0.044499, -0.046631, -0.04743, -0.046364, -0.04743, -0.044233, -0.046364, -0.050894, -0.045299, -0.050095, -0.046897, -0.050095, -0.048763, -0.047963, -0.044499, -0.046897, -0.05196, -0.048763, -0.046897, -0.0429, -0.046098, -0.04743, -0.046098, -0.04743, -0.04743, -0.046631, -0.045832, -0.047164, -0.047963, -0.043966, -0.045565, -0.049562, -0.045832, -0.045565, -0.046364, -0.045565, -0.050095, -0.051694, -0.045832, -0.050095, -0.048496, -0.047697, -0.046631, -0.046631, -0.0437, -0.047697, -0.046897, -0.043966, -0.047164, -0.046631, -0.049296, -0.043433, -0.055424, -0.050095, -0.049562, -0.047697, -0.044233, -0.044499, -0.048763, -0.044499, -0.04823, -0.045832, -0.044499, -0.045565, -0.041568, -0.054092, -0.046631, -0.045032, -0.044233, -0.0437, -0.050361, -0.046631, -0.047963, -0.045565, -0.050628, -0.04823, -0.04823, -0.04743, -0.048496, -0.046631, -0.035706, -0.055158, -0.044766, -0.050095, -0.052227, -0.046897, -0.044766, -0.045832, -0.049296, -0.051427, -0.049296, -0.045832, -0.054358, -0.045565, -0.047164, -0.046897, -0.041035, -0.046098, -0.041302, -0.046631, -0.044233, -0.046897, -0.046364, -0.045032, -0.047164, -0.04743, -0.043167, -0.047963, -0.047164, -0.047963, -0.047697, -0.046897, -0.050095, -0.043966, -0.045299, -0.048496, -0.04743, -0.045565, -0.04743, -0.046897, -0.047164, -0.049562, -0.0429, -0.039703, -0.049562, -0.042101, -0.046098, -0.049029, -0.045832, -0.046364, -0.046098, -0.047164, -0.05276, -0.046897, -0.045832, -0.045565, -0.048763, -0.047697, -0.049562, -0.049828, -0.05196, -0.066616, -0.03917, -0.050095, -0.049029, -0.043966, -0.053825, -0.043433, -0.048496, -0.046897, -0.045832, -0.043966, -0.047697, -0.046631, -0.04743, -0.047963, -0.046631, -0.044766, -0.049296, -0.049562, -0.045832, -0.045832, -0.045565, -0.049828, -0.046897, -0.046364, -0.045299, -0.046897, -0.052493, -0.042634, -0.047697, -0.042634, -0.043167, -0.04823, -0.047164, -0.048496, -0.047164, -0.045032, -0.044766, -0.048496, -0.043167, -0.043966, -0.044766, -0.045032, -0.045032, -0.04743, -0.045299, -0.046631, -0.050628, -0.047697, -0.046098, -0.045565, -0.049029, -0.051427, -0.040502, -0.049029, -0.04823, -0.046631, -0.048763, -0.053825, -0.044766]","[-0.024515, -0.025314, -0.022383, -0.023982, -0.022383, -0.023715, -0.022116, -0.019985, -0.02185, -0.021583, -0.018386, -0.019985, -0.022649, -0.019185, -0.020518, -0.019452, -0.018119, -0.023449, -0.023182, -0.019718, -0.019985, -0.016521, -0.023449, -0.02185, -0.023449, -0.021051, -0.020251, -0.023182, -0.022916, -0.021583, -0.020518, -0.019985, -0.021051, -0.023182, -0.021051, -0.021583, -0.019718, -0.020784, -0.022116, -0.022116, -0.023182, -0.019985, -0.020251, -0.019718, -0.020251, -0.018652, -0.02185, -0.023449, -0.020784, -0.024248, -0.019985, -0.019985, -0.023982, -0.024781, -0.020251, -0.022383, -0.021583, -0.019985, -0.022383, -0.024515, -0.020518, -0.022383, -0.022649, -0.022916, -0.021317, -0.022383, -0.019985, -0.020251, -0.024515, -0.020784, -0.02185, -0.02185, -0.019985, -0.022916, -0.018119, -0.014655, -0.019985, -0.02185, -0.018919, -0.022649, -0.022383, -0.01732, -0.022649, -0.021051, -0.021317, -0.022649, -0.024515, -0.016254, -0.023715, -0.02185, -0.023182, -0.022649, -0.018652, -0.022649, -0.022649, -0.021051, -0.021583, -0.021051, -0.020518, -0.022649, -0.022383, -0.021051, -0.023182, -0.020784, -0.018386, -0.022116, -0.023449, -0.021051, -0.020784, -0.02185, -0.019185, -0.023182, -0.020784, -0.022916, -0.020251, -0.021317, -0.020518, -0.022916, -0.020784, -0.022116, -0.020784, -0.023449, -0.020784, -0.020784, -0.021317, -0.018652, -0.020518, -0.020518, -0.022116, -0.020518, -0.021583, -0.023449, -0.017587, -0.02638, -0.025847, -0.023715, -0.02185, -0.019452, -0.021317, -0.02185, -0.022116, -0.02185, -0.021583, -0.018919, -0.018119, -0.022649, -0.025047, -0.018919, -0.019452, -0.020251, -0.02185, -0.022116, -0.020518, -0.021583, -0.022116, -0.022649, -0.022383, -0.02185, -0.022649, -0.022116, -0.020518, -0.022116, -0.024515, -0.02558, -0.022649, -0.024515, -0.023982, -0.020784, -0.021583, -0.018919, -0.021583, -0.019185, -0.023182, -0.021051, -0.022116, -0.024515, -0.023449, -0.017587, -0.018119, -0.017054, -0.018386, -0.02185, -0.023982, -0.020518, -0.023182, -0.020251, -0.019185, -0.021051, -0.020784, -0.025314, -0.020784, -0.02185, -0.023449, -0.023982, -0.022916, -0.018919, -0.022383, -0.02185, -0.022383, -0.022383, -0.021583, -0.020518, -0.022383, -0.019985, -0.021317, -0.02185, -0.015455, -0.02558, -0.019985, -0.023182, -0.022383, -0.020518, -0.021051, -0.019185, -0.018919, -0.021317, -0.021583, -0.023715, -0.019452, -0.019718, -0.020518, -0.019985, -0.02185, -0.018919, -0.020518, -0.025314, -0.020784, -0.021583, -0.018386, -0.023449, -0.019452, -0.021051, -0.024248, -0.02185, -0.022649, -0.023715, -0.024248, -0.020784, -0.02185, -0.022116, -0.020784, -0.02185, -0.022116, -0.021317, -0.023182, -0.021317, -0.025047, -0.022649, -0.019452, -0.021583, -0.017853, -0.020784, -0.022916, -0.020251, -0.021583, -0.025314, -0.017054, -0.018386, -0.021583, -0.022649, -0.022916, -0.02185, -0.020251, -0.022649, -0.019452, -0.021583, -0.019718, -0.020518, -0.02558, -0.023449, -0.023449, -0.023449, -0.022916, -0.017853, -0.023982, -0.019718, -0.019452, -0.021051, -0.022383, -0.022649, -0.019718, -0.021583, -0.023982, -0.021317, -0.019985, -0.017853, -0.022916, -0.022649, -0.018919, -0.019185, -0.018919, -0.018119, -0.018119, -0.019985, -0.019985, -0.022116, -0.022116, -0.021317, -0.022116, -0.020251]"
32605,"[-0.320823, -0.23942, -0.31364, -0.368707, -0.383072, -0.521936, -0.320823, -0.282516, -0.500388, -0.459687, -0.325611, -0.366313, -0.31364, -0.438139, -0.430956, -0.253785, -0.320823, -0.42138, -0.328006, -0.318429, -0.3304, -0.349553, -0.275333, -0.342371, -0.318429, -0.292093, -0.301669, -0.225055, -0.37589, -0.40462, -0.265756, -0.339977, -0.354342, -0.272939, -0.339977, -0.325611, -0.282516, 0.253785, -0.260968, -0.174777, -0.366313, -0.093374, -0.167594, -0.356736, -0.363919, -0.268151, -0.445322, -0.416591, -0.356736, -0.308852, -0.373495, -0.354342, -0.325611, -0.134075, -0.387861, 0.088585, -0.316035, -0.337582, -0.275333, -0.363919, -0.308852, -0.378284, -0.454898, -0.225055, -0.258574, -0.335188, -0.354342, -0.390255, -0.383072, -0.263362, -0.301669, -0.349553, -0.251391, -0.323217, -0.426168, -0.363919, -0.301669, -0.323217, -0.308852, -0.268151, -0.332794, -0.342371, -0.251391, -0.296881, -0.356736, -0.272939, -0.366313, -0.299275, -0.213084, -0.268151, -0.325611, -0.277727, -0.248997, -0.323217, -0.304064, -0.337582, -0.332794, -0.301669, -0.378284, -0.318429, -0.280122, -0.3304, -0.296881, -0.280122, -0.339977, -0.325611, -0.280122, -0.308852, -0.217872, -0.320823, -0.304064, -0.323217, -0.277727, -0.368707, -0.361524, -0.560243, -0.658405, -0.198719, -0.306458, -0.244209, -0.198719, -0.28491, -0.3304, -0.287304, -0.232238, -0.234632, -0.378284, -0.296881, -0.143652, -0.184354, -0.225055, -0.332794, -0.371101, -0.234632, -0.292093, -0.318429, -0.320823, -0.325611, -0.3304, -0.354342, -0.308852, -0.308852, -0.294487, -0.28491, -0.289698, -0.349553, -0.263362, -0.287304, -0.308852, -0.268151, -0.430956, -0.325611, -0.35913, -0.28491, -0.378284, -0.320823, -0.373495, -0.275333, -0.354342, -0.387861, -0.371101, -0.253785, -0.411803, -0.306458, -0.323217, -0.354342, -0.430956, -0.265756, -0.301669, -0.354342, -0.308852, -0.363919, -0.296881, -0.277727, -0.339977, -0.347159, -0.263362, -0.260968, -0.191536, -0.234632, -0.318429, -0.361524, -0.304064, -0.272939, -0.430956, -0.282516, -0.292093, -0.282516, -0.225055, -0.418985, -0.866701, -0.316035, -0.56982, -0.138864, -0.363919, -0.292093, -0.272939, -0.320823, -0.40462, -0.397437, -0.248997, -0.395043, -0.354342, -0.275333, -0.275333, -0.407014, -0.337582, -0.371101, -0.232238, -0.301669, -0.229843, -0.426168, -0.366313, 0.057461, -0.308852, -0.320823, -0.227449, -0.280122, -0.225055, -0.292093, -0.268151, -0.282516, -0.304064, -0.289698, -0.366313, -0.332794, -0.627281, -0.328006, -0.198719, -0.440533, -0.344765, -0.349553, -0.270545, -0.280122, -0.3304, -0.225055, -0.296881, -0.241814, -0.354342, -0.320823, -0.354342, -0.184354, -0.232238, -0.42138, -0.387861, -0.387861, -0.337582, -0.299275, -0.3304, -0.289698, -0.277727, -0.418985, -0.426168, -0.265756, -0.332794, -0.301669, -0.35913, -0.162806, -0.371101, -0.263362, -0.371101, -0.3304, -0.181959, -0.416591, -0.505177, -0.220267, -0.402226, -0.320823, -0.311246, -0.679953, -0.229843, -0.392649, -0.023942, -0.395043, -0.277727, -0.280122, -0.373495, -0.287304, -0.263362, -0.342371, -0.323217, -0.325611, -0.438139, -0.347159, -0.430956, -0.265756, -0.301669, -0.215478, -0.349553, -0.337582, -0.296881, -0.28491, -0.349553, -0.323217, -0.260968, -0.349553, -0.31364, -0.347159, -0.373495, -0.466869]","[-0.177171, -0.069432, -0.138864, -0.095768, -0.248997, -0.179565, -0.138864, -0.064643, -0.222661, -0.23942, -0.186748, -0.093374, -0.083797, -0.141258, -0.220267, -0.100556, -0.131681, -0.186748, -0.105345, -0.191536, -0.114922, -0.09098, -0.062249, -0.110133, -0.253785, -0.184354, -0.134075, -0.155623, -0.071826, -0.217872, -0.079009, -0.09098, -0.093374, -0.143652, -0.172383, -0.155623, -0.105345, 0.057461, -0.105345, -0.277727, -0.162806, -0.007183, 0.031125, -0.184354, -0.172383, -0.047884, -0.292093, -0.050278, -0.169988, -0.117316, -0.155623, -0.143652, -0.131681, -0.129287, -0.055067, 0.117316, -0.019154, -0.268151, -0.129287, -0.126893, -0.107739, -0.071826, -0.31364, 0.052672, -0.040701, -0.069432, -0.112527, -0.141258, -0.141258, -0.055067, -0.083797, -0.150835, -0.181959, -0.229843, -0.186748, -0.146046, -0.004788, -0.141258, -0.043096, -0.088585, -0.155623, -0.153229, -0.095768, -0.081403, -0.131681, -0.122104, -0.184354, -0.071826, -0.100556, -0.129287, -0.21069, -0.076614, -0.136469, -0.105345, -0.131681, -0.213084, -0.105345, -0.100556, -0.146046, -0.148441, -0.150835, -0.179565, -0.110133, -0.076614, -0.138864, -0.162806, -0.069432, -0.124498, -0.112527, -0.196325, -0.150835, -0.21069, -0.086191, -0.129287, -0.004788, 0.014365, -0.586579, -0.260968, -0.057461, -0.107739, 0.035913, -0.081403, -0.177171, -0.117316, -0.016759, -0.079009, -0.253785, -0.169988, -0.069432, -0.114922, -0.177171, -0.148441, -0.184354, -0.160412, -0.153229, -0.107739, -0.009577, -0.093374, -0.162806, -0.124498, -0.19393, -0.148441, -0.138864, -0.129287, -0.083797, -0.124498, -0.158017, -0.158017, -0.129287, -0.220267, -0.282516, -0.069432, -0.155623, -0.023942, -0.205901, -0.153229, -0.196325, -0.079009, -0.021548, -0.158017, -0.11971, -0.11971, -0.105345, -0.146046, -0.105345, -0.076614, -0.148441, -0.033519, -0.134075, -0.146046, -0.158017, -0.043096, -0.059855, -0.088585, -0.205901, -0.136469, -0.059855, -0.169988, -0.28491, -0.069432, -0.105345, 0.076614, -0.155623, -0.112527, -0.138864, -0.143652, -0.169988, -0.095768, -0.107739, -0.172383, -0.916979, 0.086191, -0.234632, -0.174777, -0.064643, -0.19393, -0.098162, -0.172383, -0.126893, -0.201113, -0.04549, -0.191536, -0.184354, -0.122104, -0.086191, -0.155623, -0.196325, -0.263362, 0.050278, -0.069432, -0.057461, -0.282516, -0.138864, 0.143652, -0.213084, -0.141258, -0.189142, -0.141258, -0.067038, -0.169988, -0.086191, -0.064643, -0.174777, -0.067038, -0.141258, -0.076614, -0.323217, -0.088585, -0.095768, -0.167594, -0.184354, -0.04549, -0.100556, -0.076614, -0.169988, -0.134075, -0.138864, -0.112527, -0.131681, -0.122104, -0.220267, -0.069432, -0.021548, -0.215478, -0.265756, -0.174777, -0.098162, -0.102951, -0.086191, -0.19393, -0.134075, -0.124498, -0.122104, -0.158017, -0.205901, -0.169988, -0.201113, -0.134075, -0.1652, -0.146046, -0.117316, -0.062249, -0.294487, -0.09098, -0.196325, -0.098162, -0.196325, -0.100556, 0.035913, -0.725443, -0.208296, -0.071826, 0, -0.062249, -0.11971, -0.138864, -0.162806, -0.088585, -0.158017, -0.213084, -0.055067, -0.184354, -0.009577, -0.440533, 0.131681, -0.366313, -0.129287, -0.014365, -0.172383, -0.148441, -0.11971, -0.117316, -0.110133, -0.098162, -0.129287, -0.117316, -0.181959, -0.09098, -0.129287, -0.237026]","[9.375694, 9.509769, 9.445126, 9.356541, 9.440337, 9.41879, 9.557653, 9.500193, 9.157822, 9.698911, 9.763555, 9.433155, 9.507375, 9.531317, 9.519346, 9.5385, 9.536105, 9.473856, 9.524135, 9.576807, 9.43076, 9.504981, 9.528923, 9.478644, 9.516952, 9.524135, 9.49301, 9.457097, 9.533711, 9.507375, 9.651027, 9.552865, 9.488221, 9.466674, 9.574412, 9.603143, 9.452309, 9.572019, 9.397242, 9.454702, 9.713276, 9.61272, 9.694122, 9.473856, 9.5385, 9.454702, 9.129091, 9.631873, 9.433155, 9.55047, 9.488221, 9.404425, 9.603143, 9.476251, 9.655815, 9.576807, 9.636662, 9.481039, 9.629479, 9.531317, 9.461885, 9.495404, 9.495404, 9.955091, 9.555259, 9.488221, 9.545682, 9.562442, 9.543288, 9.49301, 9.394848, 9.579201, 9.504981, 9.440337, 9.583989, 9.603143, 9.603143, 9.495404, 9.5385, 9.591172, 9.49301, 9.583989, 9.572019, 9.548077, 9.502586, 9.540894, 9.540894, 9.500193, 9.433155, 9.428367, 9.560047, 9.545682, 9.507375, 9.459491, 9.524135, 9.55047, 9.406818, 9.531317, 9.504981, 9.564836, 9.490616, 9.605537, 9.52174, 9.509769, 9.543288, 9.52174, 9.478644, 9.43076, 9.385271, 9.543288, 9.560047, 9.552865, 9.437943, 9.466674, 9.358934, 9.291897, 8.832211, 9.483433, 9.715671, 9.56723, 9.600749, 9.469068, 9.414001, 9.495404, 9.636662, 9.399636, 9.469068, 9.43076, 9.593566, 9.440337, 9.222465, 9.425972, 9.56723, 9.629479, 9.516952, 9.49301, 9.435549, 9.354146, 9.452309, 9.509769, 9.562442, 9.639056, 9.43076, 9.528923, 9.49301, 9.526528, 9.469068, 9.416395, 9.442732, 9.344569, 9.397242, 9.617508, 9.440337, 9.557653, 9.49301, 9.5385, 9.526528, 9.481039, 9.507375, 9.5385, 9.519346, 9.504981, 9.519346, 9.433155, 9.512163, 9.696517, 9.375694, 9.543288, 9.526528, 9.552865, 9.531317, 9.576807, 9.536105, 9.43076, 9.526528, 9.531317, 9.603143, 9.411607, 8.779537, 9.31105, 9.344569, 9.363723, 9.605537, 9.437943, 9.519346, 9.562442, 9.466674, 9.483433, 9.516952, 9.610326, 8.492233, 10.29986, 9.301474, 9.172187, 9.603143, 9.440337, 9.457097, 9.516952, 9.495404, 9.289502, 9.595961, 9.344569, 9.5385, 9.564836, 9.416395, 9.399636, 9.555259, 9.471462, 9.730036, 9.382876, 9.548077, 9.385271, 9.497798, 9.909601, 9.188946, 9.572019, 9.512163, 9.55047, 9.617508, 9.500193, 9.3733, 9.607931, 9.495404, 9.495404, 9.526528, 9.727641, 9.416395, 9.622296, 9.61272, 9.591172, 9.555259, 9.44752, 9.576807, 9.208099, 9.545682, 9.555259, 9.562442, 9.428367, 9.488221, 9.382876, 9.586384, 9.428367, 9.665392, 9.363723, 9.536105, 9.531317, 9.481039, 9.615114, 9.481039, 9.646238, 9.572019, 9.519346, 9.526528, 9.452309, 9.586384, 9.516952, 9.277532, 9.593566, 9.603143, 9.605537, 9.552865, 9.598354, 9.088389, 9.366117, 9.481039, 9.49301, 9.382876, 9.61272, 9.397242, 9.006987, 9.497798, 9.531317, 9.562442, 9.342175, 9.473856, 9.564836, 9.545682, 9.454702, 9.483433, 9.43076, 9.617508, 9.490616, 9.507375, 9.490616, 9.691729, 9.346964, 9.519346, 9.425972, 9.43076, 9.509769, 9.631873, 9.600749, 9.591172, 9.433155, 9.52174, 9.497798, 9.595961, 9.44752, 9.481039, 9.461885]","[0.000799, -0.008527, -0.003997, -0.001066, -0.003198, -0.002931, -0.003198, 0.003464, -0.003198, -0.010126, 0.005063, -0.005329, -0.001332, -0.003464, -0.002931, -0.002398, 0.000266, -0.002931, -0.00373, -0.005063, -0.006129, -0.001865, -0.002931, -0.00373, -0.005329, -0.002665, -0.006928, -0.003997, -0.002931, -0.000266, -0.006129, -0.001865, -0.003464, 0, -0.001865, -0.002398, -0.000799, -0.007461, -0.017054, 0.003198, -0.007994, -0.00373, -0.005329, -0.005063, -0.002132, -0.00453, 0.002132, -0.005596, 0.000799, -0.002132, -0.001865, -0.004263, -0.00453, -0.000799, -0.002931, -0.005063, -0.002665, -0.002665, 0.001332, -0.002132, -0.001865, -0.006662, -0.001066, -0.009326, -0.001599, -0.006662, -0.001865, -0.002665, -0.004796, -0.001599, -0.002931, -0.001066, -0.004263, -0.000799, -0.001332, -0.00373, -0.002398, -0.001599, -0.001865, -0.002665, -0.007194, -0.000266, -0.001332, -0.003464, -0.001865, 0.000266, -0.001332, -0.000266, -0.00373, -0.000533, -0.004263, -0.002132, -0.003997, -0.003464, -0.005063, -0.005329, -0.001599, -0.004796, -0.003464, -0.004263, -0.002931, -0.001066, -0.004263, -0.003198, -0.003464, -0.001066, -0.003464, -0.002665, -0.004796, -0.003464, -0.002398, -0.003997, -0.003464, -0.000266, -0.002665, -0.00826, 0.00453, 0.001599, -0.007461, -0.001066, -0.003198, -0.008527, -0.002398, -0.002398, -0.010392, -0.000533, -0.004263, -0.005063, -0.002931, -0.000533, 0.002398, -0.001599, -0.000799, -0.005329, -0.001332, -0.002398, -0.006129, -0.002931, -0.001066, -0.003997, -0.002665, -0.001066, -0.00373, -0.005862, -0.00373, -0.004263, -0.003997, -0.004796, -0.003198, -0.004263, 0.001332, -0.000266, -0.001865, -0.002398, -0.00453, -0.001066, -0.003464, -0.001599, -0.002665, -0.000533, -0.002132, -0.005596, -0.003997, -0.001066, -0.005063, -0.006129, -0.000799, -0.008793, -0.001599, -0.005329, -0.004796, -0.001865, -0.006662, -0.002132, -0.001599, -0.002132, -0.002665, 0.000799, 0.017054, 0.011191, 0.002931, -0.007727, -0.005063, 0.002398, -0.005063, -0.001332, 0.000266, -0.005063, -0.004263, -0.004263, 0.024248, -0.00906, 0.000266, 0.002398, -0.003198, 0.000266, -0.001865, -0.002132, -0.000533, -0.000533, -0.001865, -0.003997, -0.001865, -0.002665, -0.00453, -0.002398, 0, -0.003464, -0.002931, -0.002132, -0.003464, -0.000799, -0.003198, -0.011191, 0.000266, -0.003997, -0.005063, -0.001865, -0.002931, -0.003198, -0.005596, -0.003198, -0.002132, -0.002931, -0.002132, -0.006129, -0.000799, -0.002931, -0.002398, -0.00906, -0.00906, -0.000533, -0.002398, 0.000266, -0.002665, 0, -0.006395, 0, -0.003464, -0.006928, -0.002665, -0.001599, -0.003997, -0.003464, -0.000533, -0.004796, -0.003464, -0.004796, -0.001865, -0.005329, -0.005596, -0.000799, -0.00453, -0.001332, -0.001599, -0.00373, -0.001066, -0.006395, -0.002665, -0.001599, -0.002132, -0.004796, 0.001066, -0.004796, -0.006928, -0.001865, -0.00373, 0, -0.005329, -0.010126, 0.002931, -0.007994, 0.003464, -0.001599, -0.005329, -0.00373, -0.002398, -0.002132, -0.003198, -0.001332, -0.003198, -0.002665, -0.003997, 0.003464, -0.013057, 0.008793, -0.005596, -0.00453, -0.003997, -0.003464, -0.001865, -0.002398, -0.002931, -0.004263, -0.003198, -0.005329, -0.000799, -0.003464, -0.003198, 0.001332]","[-0.045832, -0.046631, -0.048763, -0.046897, -0.046098, -0.049562, -0.045032, -0.049828, -0.046631, -0.041035, -0.048763, -0.043966, -0.046897, -0.045832, -0.047963, -0.045565, -0.047697, -0.045032, -0.045032, -0.045832, -0.049029, -0.049029, -0.045032, -0.045032, -0.043167, -0.050628, -0.045299, -0.046631, -0.045832, -0.046631, -0.048763, -0.046098, -0.046098, -0.04743, -0.047164, -0.04743, -0.04823, -0.038104, -0.036772, -0.045299, -0.045565, -0.0437, -0.045565, -0.043433, -0.047963, -0.046098, -0.050894, -0.04823, -0.046897, -0.046631, -0.046098, -0.049828, -0.044766, -0.045032, -0.050894, -0.044766, -0.054358, -0.044499, -0.049029, -0.051427, -0.045832, -0.050628, -0.05649, -0.04823, -0.049029, -0.049296, -0.046631, -0.050628, -0.042368, -0.045565, -0.047697, -0.042634, -0.048763, -0.049562, -0.047164, -0.046098, -0.043966, -0.04743, -0.045832, -0.048763, -0.047963, -0.046098, -0.045299, -0.04743, -0.044499, -0.044233, -0.051427, -0.047697, -0.045299, -0.04823, -0.045032, -0.04823, -0.0437, -0.046631, -0.049296, -0.046364, -0.045299, -0.04823, -0.04823, -0.04743, -0.045299, -0.047697, -0.045832, -0.045565, -0.046364, -0.045032, -0.04823, -0.044499, -0.046098, -0.047963, -0.046364, -0.045032, -0.046364, -0.050361, -0.046364, -0.044499, -0.044766, -0.044766, -0.048496, -0.049296, -0.047697, -0.043167, -0.04823, -0.046631, -0.041835, -0.047164, -0.050628, -0.047697, -0.046631, -0.047697, -0.044233, -0.048763, -0.046098, -0.050095, -0.050361, -0.048496, -0.042368, -0.044499, -0.046631, -0.044233, -0.048763, -0.045832, -0.047963, -0.043966, -0.045832, -0.045565, -0.045299, -0.044233, -0.047697, -0.043167, -0.046897, -0.051694, -0.050361, -0.04743, -0.045565, -0.046631, -0.046631, -0.046631, -0.044766, -0.049562, -0.050361, -0.047963, -0.046631, -0.049029, -0.045299, -0.043167, -0.049029, -0.043167, -0.046897, -0.045832, -0.049029, -0.050361, -0.045299, -0.045565, -0.049828, -0.045832, -0.046631, -0.051161, -0.052493, -0.049296, -0.059421, -0.044766, -0.042634, -0.051427, -0.043433, -0.046631, -0.050361, -0.044233, -0.048496, -0.051161, -0.055957, -0.040502, -0.052227, -0.04743, -0.043966, -0.048763, -0.044499, -0.046897, -0.045032, -0.045032, -0.044499, -0.046897, -0.045299, -0.048496, -0.044233, -0.047697, -0.044499, -0.047164, -0.045565, -0.042634, -0.044766, -0.050361, -0.044233, -0.042368, -0.046631, -0.045299, -0.048496, -0.04743, -0.046364, -0.047963, -0.046897, -0.047697, -0.045565, -0.047697, -0.046364, -0.047963, -0.050628, -0.044766, -0.049562, -0.049029, -0.046631, -0.049562, -0.043433, -0.044766, -0.046631, -0.04743, -0.045565, -0.050361, -0.048763, -0.045832, -0.048763, -0.049296, -0.051161, -0.048763, -0.050095, -0.047164, -0.044766, -0.0437, -0.049029, -0.045299, -0.048763, -0.048763, -0.043966, -0.04743, -0.046631, -0.04743, -0.04823, -0.042368, -0.046364, -0.046897, -0.047963, -0.040502, -0.045299, -0.045299, -0.04823, -0.046364, -0.0429, -0.050361, -0.043966, -0.049296, -0.044766, -0.045032, -0.048496, -0.045299, -0.046364, -0.049296, -0.049828, -0.047164, -0.044766, -0.044766, -0.048763, -0.049029, -0.049029, -0.053825, -0.041035, -0.051161, -0.048763, -0.044766, -0.049029, -0.049029, -0.046098, -0.046897, -0.047963, -0.046631, -0.044766, -0.047963, -0.04743, -0.044233, -0.046897, -0.049828]","[-0.020518, -0.024515, -0.02185, -0.020251, -0.021317, -0.022649, -0.022116, -0.021051, -0.022916, -0.018652, -0.017853, -0.022383, -0.020518, -0.022916, -0.021051, -0.019185, -0.020251, -0.022383, -0.021583, -0.026646, -0.023449, -0.024248, -0.018652, -0.022383, -0.019718, -0.024248, -0.023715, -0.021051, -0.022649, -0.022916, -0.020518, -0.021317, -0.020518, -0.020251, -0.021317, -0.020518, -0.022116, -0.021317, -0.021317, -0.020784, -0.023449, -0.020784, -0.023449, -0.020518, -0.022116, -0.023182, -0.022649, -0.023715, -0.020518, -0.02638, -0.02185, -0.019718, -0.019452, -0.020251, -0.019718, -0.022649, -0.020518, -0.023182, -0.023715, -0.022383, -0.019452, -0.023449, -0.021583, -0.025047, -0.020518, -0.022383, -0.022383, -0.025047, -0.021051, -0.024515, -0.021051, -0.019985, -0.022116, -0.022116, -0.021583, -0.022649, -0.022916, -0.022916, -0.018919, -0.021583, -0.019718, -0.020518, -0.02185, -0.018919, -0.022649, -0.018652, -0.019718, -0.023182, -0.018119, -0.022116, -0.019452, -0.020251, -0.022116, -0.023182, -0.022116, -0.019185, -0.023182, -0.020784, -0.017054, -0.019985, -0.019985, -0.019452, -0.022383, -0.022383, -0.017853, -0.022383, -0.021583, -0.021317, -0.020518, -0.021583, -0.021317, -0.021583, -0.021051, -0.021583, -0.021583, -0.019452, -0.023449, -0.023182, -0.022649, -0.019718, -0.020251, -0.021583, -0.022383, -0.020518, -0.022916, -0.021051, -0.019985, -0.023182, -0.022383, -0.019985, -0.02185, -0.018119, -0.021583, -0.020518, -0.023449, -0.023715, -0.021317, -0.021051, -0.02185, -0.018919, -0.02185, -0.021583, -0.022116, -0.021317, -0.022649, -0.019718, -0.020251, -0.01732, -0.022116, -0.023182, -0.022916, -0.021317, -0.021051, -0.021583, -0.023182, -0.021583, -0.019718, -0.019185, -0.021583, -0.022649, -0.022383, -0.023982, -0.022649, -0.018119, -0.023182, -0.021583, -0.020784, -0.022116, -0.02185, -0.02185, -0.017587, -0.02185, -0.017853, -0.019985, -0.02185, -0.023715, -0.020251, -0.021583, -0.025047, -0.025047, -0.022116, -0.020518, -0.018919, -0.02185, -0.020251, -0.022383, -0.018652, -0.019718, -0.024248, -0.021051, -0.025047, -0.017853, -0.020251, -0.023182, -0.024781, -0.022649, -0.023982, -0.020518, -0.020518, -0.021317, -0.023182, -0.023449, -0.021583, -0.019985, -0.021317, -0.022383, -0.019452, -0.022116, -0.019452, -0.021317, -0.022383, -0.021051, -0.018386, -0.020518, -0.022383, -0.021051, -0.019985, -0.023715, -0.019985, -0.022916, -0.019985, -0.025047, -0.023182, -0.019985, -0.019985, -0.019985, -0.021051, -0.018119, -0.01732, -0.017054, -0.022916, -0.022116, -0.021317, -0.022383, -0.022116, -0.023182, -0.019452, -0.019985, -0.02185, -0.020518, -0.020518, -0.02558, -0.018919, -0.020784, -0.024515, -0.022383, -0.021583, -0.022116, -0.021051, -0.020784, -0.019185, -0.022916, -0.02638, -0.020518, -0.023449, -0.023449, -0.022383, -0.021317, -0.02185, -0.022383, -0.019452, -0.023449, -0.022116, -0.022383, -0.020784, -0.023449, -0.020518, -0.021317, -0.020784, -0.019452, -0.023982, -0.020518, -0.02185, -0.020518, -0.019185, -0.023715, -0.022116, -0.018919, -0.020518, -0.021583, -0.023182, -0.021317, -0.022116, -0.022116, -0.020251, -0.021317, -0.024248, -0.023982, -0.022383, -0.019452, -0.020518, -0.022116, -0.021583, -0.020518, -0.022916, -0.023449, -0.019185, -0.020518, -0.019452, -0.021317]"
