time,ax,ay,az,gx,gy,gz
2135,"[0.452504, 0.430956, 0.426168, 0.445322, 0.387861, 0.438139, 0.423774, 0.37589, 0.385466, 0.435745, 0.399832, 0.438139, 0.442927, 0.440533, 0.397437, 0.385466, 0.500388, 0.349553, 0.395043, 0.466869, 0.440533, 0.407014, 0.464475, 0.445322, 0.363919, 0.351948, 0.464475, 0.385466, 0.347159, 0.385466, 0.452504, 0.459687, 0.395043, 0.483629, 0.387861, 0.407014, 0.47884, 0.464475, 0.35913, 0.440533, 0.483629, 0.466869, 0.328006, 0.454898, 0.42138, 0.407014, 0.538695, 0.363919, 0.318429, 0.493206, 0.452504, 0.35913, 0.445322, 0.457293, 0.45011, 0.354342, 0.47884, 0.433351, 0.332794, 0.438139, 0.40462, 0.45011, 0.395043, 0.521936, 0.454898, 0.373495, 0.385466, 0.378284, 0.416591, 0.407014, 0.407014, 0.383072, 0.380678, 0.457293, 0.40462, 0.387861, 0.399832, 0.399832, 0.349553, 0.380678, 0.387861, 0.354342, 0.428562, 0.368707, 0.438139, 0.409408, 0.476446, 0.45011, 0.383072, 0.399832, 0.45011, 0.438139, 0.416591, 0.37589, 0.447716, 0.426168, 0.397437, 0.440533, 0.435745, 0.373495, 0.469264, 0.42138, 0.409408, 0.371101, 0.521936, 0.385466, 0.344765, 0.435745, 0.445322, 0.474052, 0.397437, 0.440533, 0.411803, 0.42138, 0.397437, 0.430956, 0.37589, 0.435745, 0.397437, 0.438139, 0.3304, 0.447716, 0.474052, 0.445322, 0.497994, 0.45011, 0.490811, 0.445322, 0.440533, 0.483629, 0.37589, 0.35913, 0.325611, 0.442927, 0.438139, 0.452504, 0.361524, 0.409408, 0.457293, 0.37589, 0.469264, 0.474052, 0.397437, 0.387861, 0.385466, 0.42138, 0.395043, 0.335188, 0.409408, 0.361524, 0.454898, 0.42138, 0.409408, 0.361524, 0.411803, 0.457293, 0.339977, 0.387861, 0.430956, 0.469264, 0.383072, 0.397437, 0.445322, 0.35913, 0.418985, 0.454898, 0.35913, 0.347159, 0.481235, 0.459687, 0.373495, 0.371101, 0.442927, 0.40462, 0.311246, 0.462081, 0.397437, 0.35913, 0.402226, 0.481235, 0.416591, 0.392649, 0.42138, 0.411803, 0.349553, 0.414197, 0.37589, 0.433351, 0.428562, 0.407014, 0.368707, 0.361524, 0.488417, 0.373495, 0.397437, 0.469264, 0.392649, 0.395043, 0.380678, 0.397437, 0.416591, 0.399832, 0.438139, 0.471658, 0.402226, 0.418985, 0.445322, 0.383072, 0.409408, 0.452504, 0.37589, 0.392649, 0.363919, 0.409408, 0.366313, 0.418985, 0.474052, 0.40462, 0.52433, 0.459687, 0.351948, 0.35913, 0.397437, 0.469264, 0.380678, 0.474052, 0.579397, 0.380678, 0.323217, 0.390255, 0.409408, 0.380678, 0.466869, 0.435745, 0.397437, 0.368707, 0.402226, 0.502782, 0.37589, 0.438139, 0.445322, 0.481235, 0.383072, 0.457293, 0.464475, 0.371101, 0.471658, 0.416591, 0.306458, 0.464475, 0.47884, 0.402226, 0.351948, 0.442927, 0.452504, 0.42138, 0.414197, 0.395043, 0.387861, 0.335188, 0.459687, 0.397437, 0.402226, 0.433351, 0.366313, 0.399832, 0.356736, 0.387861, 0.407014, 0.416591, 0.469264, 0.387861, 0.411803, 0.380678, 0.45011, 0.354342, 0.42138, 0.457293, 0.347159, 0.438139, 0.433351, 0.402226, 0.368707, 0.433351, 0.447716, 0.390255, 0.445322, 0.426168, 0.402226, 0.383072, 0.45011, 0.354342, 0.399832, 0.464475, 0.452504, 0.385466, 0.323217, 0.457293, 0.368707, 0.464475]","[-0.474052, -0.521936, -0.52433, -0.610521, -0.536301, -0.517148, -0.486023, -0.500388, -0.488417, -0.538695, -0.454898, -0.543484, -0.452504, -0.550666, -0.562637, -0.493206, -0.52433, -0.526724, -0.497994, -0.486023, -0.490811, -0.538695, -0.45011, -0.490811, -0.531513, -0.509965, -0.502782, -0.565032, -0.517148, -0.493206, -0.543484, -0.521936, -0.521936, -0.476446, -0.577003, -0.488417, -0.519542, -0.4956, -0.553061, -0.521936, -0.512359, -0.526724, -0.536301, -0.538695, -0.536301, -0.488417, -0.493206, -0.548272, -0.502782, -0.507571, -0.588974, -0.567426, -0.517148, -0.526724, -0.533907, -0.531513, -0.4956, -0.514753, -0.543484, -0.4956, -0.545878, -0.474052, -0.54109, -0.517148, -0.505177, -0.54109, -0.454898, -0.490811, -0.521936, -0.464475, -0.536301, -0.507571, -0.519542, -0.464475, -0.497994, -0.47884, -0.526724, -0.577003, -0.526724, -0.52433, -0.497994, -0.497994, -0.483629, -0.4956, -0.565032, -0.560243, -0.505177, -0.4956, -0.574608, -0.490811, -0.4956, -0.536301, -0.490811, -0.481235, -0.52433, -0.545878, -0.52433, -0.476446, -0.507571, -0.493206, -0.617704, -0.47884, -0.514753, -0.519542, -0.545878, -0.512359, -0.557849, -0.52433, -0.502782, -0.553061, -0.462081, -0.486023, -0.507571, -0.584185, -0.536301, -0.59855, -0.531513, -0.533907, -0.567426, -0.562637, -0.486023, -0.557849, -0.517148, -0.526724, -0.474052, -0.54109, -0.565032, -0.536301, -0.483629, -0.493206, -0.4956, -0.483629, -0.481235, -0.462081, -0.545878, -0.54109, -0.565032, -0.507571, -0.519542, -0.514753, -0.483629, -0.538695, -0.553061, -0.565032, -0.553061, -0.526724, -0.548272, -0.433351, -0.502782, -0.560243, -0.521936, -0.464475, -0.54109, -0.56982, -0.500388, -0.486023, -0.545878, -0.52433, -0.502782, -0.4956, -0.531513, -0.548272, -0.474052, -0.557849, -0.509965, -0.553061, -0.505177, -0.591368, -0.45011, -0.507571, -0.581791, -0.497994, -0.538695, -0.514753, -0.538695, -0.567426, -0.545878, -0.493206, -0.550666, -0.509965, -0.497994, -0.526724, -0.505177, -0.517148, -0.536301, -0.502782, -0.531513, -0.54109, -0.517148, -0.514753, -0.560243, -0.476446, -0.521936, -0.514753, -0.538695, -0.553061, -0.459687, -0.514753, -0.493206, -0.565032, -0.567426, -0.553061, -0.507571, -0.497994, -0.483629, -0.519542, -0.502782, -0.481235, -0.54109, -0.545878, -0.497994, -0.577003, -0.505177, -0.533907, -0.555455, -0.521936, -0.476446, -0.505177, -0.533907, -0.52433, -0.545878, -0.536301, -0.497994, -0.545878, -0.545878, -0.521936, -0.553061, -0.4956, -0.536301, -0.47884, -0.497994, -0.529119, -0.519542, -0.514753, -0.562637, -0.533907, -0.553061, -0.483629, -0.56982, -0.567426, -0.512359, -0.517148, -0.529119, -0.490811, -0.514753, -0.54109, -0.512359, -0.54109, -0.500388, -0.469264, -0.497994, -0.548272, -0.490811, -0.543484, -0.514753, -0.533907, -0.531513, -0.502782, -0.445322, -0.517148, -0.514753, -0.536301, -0.4956, -0.464475, -0.500388, -0.507571, -0.531513, -0.521936, -0.519542, -0.493206, -0.483629, -0.553061, -0.52433, -0.543484, -0.536301, -0.521936, -0.519542, -0.4956, -0.56982, -0.514753, -0.533907, -0.52433, -0.507571, -0.509965, -0.533907, -0.550666, -0.466869, -0.486023, -0.536301, -0.505177, -0.553061, -0.543484, -0.514753, -0.574608, -0.500388, -0.52433, -0.500388, -0.521936, -0.512359, -0.536301]","[9.330204, 9.318233, 9.263166, 9.337387, 9.457097, 9.440337, 9.356541, 9.337387, 9.358934, 9.323022, 9.485827, 9.318233, 9.299079, 9.349358, 9.303867, 9.28232, 9.330204, 9.28232, 9.380483, 9.363723, 9.320627, 9.358934, 9.354146, 9.337387, 9.31105, 9.315839, 9.397242, 9.41879, 9.368511, 9.406818, 9.409213, 9.323022, 9.375694, 9.40203, 9.356541, 9.40203, 9.428367, 9.358934, 9.394848, 9.41879, 9.414001, 9.440337, 9.40203, 9.394848, 9.380483, 9.320627, 9.433155, 9.3733, 9.306262, 9.437943, 9.318233, 9.421184, 9.382876, 9.330204, 9.378088, 9.361329, 9.349358, 9.344569, 9.284714, 9.452309, 9.323022, 9.378088, 9.32781, 9.356541, 9.351752, 9.40203, 9.342175, 9.370906, 9.445126, 9.375694, 9.334992, 9.318233, 9.318233, 9.41879, 9.354146, 9.303867, 9.220071, 9.301474, 9.267955, 9.404425, 9.260772, 9.354146, 9.382876, 9.469068, 9.459491, 9.351752, 9.303867, 9.406818, 9.272743, 9.354146, 9.334992, 9.32781, 9.368511, 9.387665, 9.337387, 9.382876, 9.363723, 9.349358, 9.351752, 9.390059, 9.337387, 9.382876, 9.370906, 9.394848, 9.318233, 9.356541, 9.416395, 9.303867, 9.31105, 9.346964, 9.425972, 9.356541, 9.363723, 9.411607, 9.344569, 9.394848, 9.301474, 9.351752, 9.378088, 9.349358, 9.454702, 9.356541, 9.337387, 9.382876, 9.339781, 9.342175, 9.334992, 9.358934, 9.255983, 9.301474, 9.459491, 9.440337, 9.351752, 9.351752, 9.399636, 9.361329, 9.382876, 9.394848, 9.385271, 9.473856, 9.392453, 9.323022, 9.363723, 9.32781, 9.361329, 9.416395, 9.306262, 9.370906, 9.43076, 9.459491, 9.363723, 9.370906, 9.296685, 9.320627, 9.354146, 9.394848, 9.23683, 9.318233, 9.294291, 9.421184, 9.425972, 9.411607, 9.363723, 9.378088, 9.334992, 9.356541, 9.354146, 9.380483, 9.368511, 9.375694, 9.301474, 9.334992, 9.325416, 9.299079, 9.330204, 9.366117, 9.366117, 9.291897, 9.325416, 9.325416, 9.344569, 9.425972, 9.392453, 9.368511, 9.318233, 9.291897, 9.334992, 9.41879, 9.368511, 9.442732, 9.323022, 9.25359, 9.346964, 9.287108, 9.303867, 9.356541, 9.437943, 9.478644, 9.382876, 9.349358, 9.378088, 9.323022, 9.397242, 9.370906, 9.44752, 9.354146, 9.41879, 9.32781, 9.351752, 9.323022, 9.394848, 9.303867, 9.3733, 9.342175, 9.270349, 9.332599, 9.337387, 9.318233, 9.349358, 9.363723, 9.346964, 9.3733, 9.332599, 9.394848, 9.519346, 9.330204, 9.349358, 9.294291, 9.385271, 9.344569, 9.363723, 9.41879, 9.255983, 9.457097, 9.394848, 9.392453, 9.390059, 9.380483, 9.366117, 9.3733, 9.334992, 9.457097, 9.428367, 9.301474, 9.320627, 9.392453, 9.375694, 9.356541, 9.23683, 9.23683, 9.414001, 9.428367, 9.394848, 9.325416, 9.332599, 9.421184, 9.397242, 9.272743, 9.433155, 9.390059, 9.330204, 9.301474, 9.375694, 9.490616, 9.356541, 9.344569, 9.313444, 9.349358, 9.356541, 9.344569, 9.368511, 9.366117, 9.394848, 9.390059, 9.313444, 9.349358, 9.346964, 9.346964, 9.306262, 9.366117, 9.294291, 9.325416, 9.399636, 9.394848, 9.332599, 9.23683, 9.452309, 9.351752, 9.363723, 9.339781, 9.354146, 9.370906, 9.461885, 9.342175, 9.385271, 9.380483, 9.41879, 9.344569, 9.332599, 9.406818]","[-0.006928, -0.006395, -0.00826, -0.007194, -0.006662, -0.006129, -0.00826, -0.007194, -0.009859, -0.007727, -0.009326, -0.008527, -0.009326, -0.006662, -0.008793, -0.007194, -0.007194, -0.006129, -0.010126, -0.009326, -0.008527, -0.006662, -0.006928, -0.006662, -0.007194, -0.007727, -0.007994, -0.005862, -0.006662, -0.009593, -0.006395, -0.007461, -0.006928, -0.00826, -0.008793, -0.007461, -0.009593, -0.005329, -0.006928, -0.006928, -0.00826, -0.007461, -0.006129, -0.004796, -0.008527, -0.007461, -0.008527, -0.00826, -0.008527, -0.007461, -0.00906, -0.007194, -0.007727, -0.006928, -0.007727, -0.006395, -0.006928, -0.007994, -0.007194, -0.006662, -0.006928, -0.006662, -0.008527, -0.007994, -0.008527, -0.007994, -0.006129, -0.007994, -0.004263, -0.006662, -0.007461, -0.007994, -0.009593, -0.006928, -0.010392, -0.00826, -0.007994, -0.00906, -0.005329, -0.008793, -0.007461, -0.006928, -0.005862, -0.008527, -0.006129, -0.005329, -0.005596, -0.005862, -0.006129, -0.009326, -0.00906, -0.006395, -0.006928, -0.00906, -0.007461, -0.010925, -0.007461, -0.007194, -0.006662, -0.006928, -0.006395, -0.008793, -0.006662, -0.006662, -0.008527, -0.006928, -0.006129, -0.00826, -0.006928, -0.00906, -0.009593, -0.007461, -0.005862, -0.007461, -0.008527, -0.00826, -0.005329, -0.006395, -0.006129, -0.010658, -0.006928, -0.005862, -0.007461, -0.009859, -0.006129, -0.007194, -0.006662, -0.010392, -0.008527, -0.006395, -0.00453, -0.008793, -0.007727, -0.005596, -0.003997, -0.006662, -0.00826, -0.006129, -0.005329, -0.009326, -0.006928, -0.005329, -0.007461, -0.008527, -0.00826, -0.00826, -0.007461, -0.005862, -0.007727, -0.007461, -0.006928, -0.010658, -0.006928, -0.006662, -0.006395, -0.008793, -0.007461, -0.007461, -0.007461, -0.010126, -0.006662, -0.006662, -0.009326, -0.005862, -0.007194, -0.008527, -0.00906, -0.009593, -0.007194, -0.010658, -0.00906, -0.006662, -0.008527, -0.00826, -0.006662, -0.008527, -0.011991, -0.009326, -0.005329, -0.005596, -0.007727, -0.007994, -0.006928, -0.00826, -0.00826, -0.006395, -0.007194, -0.008527, -0.008793, -0.010925, -0.006662, -0.007461, -0.007727, -0.006129, -0.010126, -0.006395, -0.007994, -0.006928, -0.007727, -0.007727, -0.007461, -0.007461, -0.006395, -0.006395, -0.005596, -0.012257, -0.008527, -0.00453, -0.007727, -0.010126, -0.008527, -0.007994, -0.007727, -0.00826, -0.009593, -0.007727, -0.005329, -0.00906, -0.006662, -0.011191, -0.008793, -0.007194, -0.007994, -0.007727, -0.007727, -0.007727, -0.007461, -0.006129, -0.005329, -0.007727, -0.00906, -0.009326, -0.006395, -0.010658, -0.004796, -0.003997, -0.00453, -0.007461, -0.005862, -0.005596, -0.004263, -0.006395, -0.006928, -0.007994, -0.00453, -0.007461, -0.007727, -0.008793, -0.007727, -0.006662, -0.006928, -0.007461, -0.00826, -0.009859, -0.00906, -0.007194, -0.010392, -0.006928, -0.006129, -0.009859, -0.007194, -0.006928, -0.008527, -0.007194, -0.010925, -0.007727, -0.007994, -0.006662, -0.007461, -0.007194, -0.007994, -0.006662, -0.006662, -0.006662, -0.009326, -0.006395, -0.009859, -0.006129, -0.005862, -0.007994, -0.005596, -0.006662, -0.008793, -0.010925, -0.007994, -0.009593, -0.007727, -0.009326, -0.007727, -0.007994, -0.006928, -0.008527, -0.005063, -0.006662, -0.007194, -0.008527, -0.007194, -0.00826, -0.006129, -0.00826]","[-0.042634, -0.041568, -0.040769, -0.040236, -0.045565, -0.042368, -0.044233, -0.040769, -0.041835, -0.042634, -0.043167, -0.041568, -0.040769, -0.044766, -0.043966, -0.0437, -0.043433, -0.043167, -0.041035, -0.042368, -0.041835, -0.0437, -0.041835, -0.042634, -0.041568, -0.0429, -0.0429, -0.043966, -0.041835, -0.0437, -0.042368, -0.040236, -0.042101, -0.041035, -0.041568, -0.042634, -0.041835, -0.041568, -0.044499, -0.040769, -0.043966, -0.041302, -0.042368, -0.03917, -0.043167, -0.042634, -0.0437, -0.041568, -0.043966, -0.040502, -0.041035, -0.043433, -0.041835, -0.043167, -0.042634, -0.042368, -0.043966, -0.041035, -0.0429, -0.0429, -0.041568, -0.043433, -0.043167, -0.042634, -0.040236, -0.039969, -0.0437, -0.041835, -0.043167, -0.042368, -0.0437, -0.0429, -0.042634, -0.040502, -0.041835, -0.042101, -0.038371, -0.043433, -0.039436, -0.042634, -0.040502, -0.043433, -0.041568, -0.0429, -0.043167, -0.042368, -0.042368, -0.041835, -0.041035, -0.040769, -0.043167, -0.039969, -0.043433, -0.0429, -0.039436, -0.043966, -0.0429, -0.040502, -0.042634, -0.043433, -0.042101, -0.042634, -0.043433, -0.040236, -0.040502, -0.043167, -0.042368, -0.041302, -0.045832, -0.042101, -0.044233, -0.045565, -0.0429, -0.042101, -0.040769, -0.042101, -0.042634, -0.0437, -0.040236, -0.041568, -0.041835, -0.042634, -0.042101, -0.041302, -0.039703, -0.042634, -0.043167, -0.041835, -0.040236, -0.042634, -0.042101, -0.040769, -0.042101, -0.044233, -0.042101, -0.0437, -0.043167, -0.041302, -0.041302, -0.041568, -0.0429, -0.044499, -0.043167, -0.042101, -0.040769, -0.042368, -0.044766, -0.043966, -0.043966, -0.041568, -0.042368, -0.043167, -0.044766, -0.045565, -0.041568, -0.042101, -0.041568, -0.042634, -0.041835, -0.042634, -0.041835, -0.043433, -0.039703, -0.043433, -0.045032, -0.044766, -0.0429, -0.043433, -0.0437, -0.040769, -0.041035, -0.043167, -0.042368, -0.044233, -0.0437, -0.040236, -0.043167, -0.041568, -0.040769, -0.040502, -0.043167, -0.043167, -0.042368, -0.043966, -0.040769, -0.041568, -0.039969, -0.039969, -0.041835, -0.0429, -0.040502, -0.0437, -0.042634, -0.043433, -0.0429, -0.040502, -0.0429, -0.040769, -0.041568, -0.042101, -0.041035, -0.041568, -0.042368, -0.041568, -0.043966, -0.042634, -0.042101, -0.041035, -0.041568, -0.044233, -0.043433, -0.039969, -0.042101, -0.046098, -0.0429, -0.042101, -0.041302, -0.041568, -0.0429, -0.042101, -0.039703, -0.041302, -0.044233, -0.042368, -0.043966, -0.041835, -0.040769, -0.044233, -0.043966, -0.041568, -0.041835, -0.042101, -0.03917, -0.043167, -0.041568, -0.044233, -0.041835, -0.042101, -0.044499, -0.043167, -0.0429, -0.041035, -0.042634, -0.041035, -0.0429, -0.041568, -0.044499, -0.0429, -0.042368, -0.041035, -0.038637, -0.042368, -0.042634, -0.0429, -0.040769, -0.043433, -0.040769, -0.041835, -0.038104, -0.043167, -0.03917, -0.041035, -0.045032, -0.0429, -0.0429, -0.041035, -0.043433, -0.041835, -0.041835, -0.043433, -0.042101, -0.043966, -0.041568, -0.040502, -0.044233, -0.041302, -0.043167, -0.041568, -0.042368, -0.040769, -0.042368, -0.044499, -0.041835, -0.041302, -0.043966, -0.042101, -0.043433, -0.042101, -0.044766, -0.0437, -0.041835, -0.043167, -0.043966, -0.041035, -0.042634, -0.040769, -0.041302, -0.040236, -0.043433, -0.041302]","[-0.018386, -0.018652, -0.017853, -0.021317, -0.022649, -0.019185, -0.017054, -0.021317, -0.018119, -0.018119, -0.020784, -0.020251, -0.019718, -0.017853, -0.018652, -0.019718, -0.017853, -0.020251, -0.018919, -0.018386, -0.015721, -0.01732, -0.020784, -0.01732, -0.023182, -0.01732, -0.020784, -0.01732, -0.020518, -0.020518, -0.018386, -0.019452, -0.020784, -0.021317, -0.020251, -0.019185, -0.017853, -0.020518, -0.022649, -0.020518, -0.019985, -0.019185, -0.019185, -0.017587, -0.020784, -0.015188, -0.019718, -0.021051, -0.021051, -0.020251, -0.018919, -0.019185, -0.018386, -0.018386, -0.01732, -0.018386, -0.01732, -0.021317, -0.020251, -0.018119, -0.01732, -0.019185, -0.018652, -0.016787, -0.02185, -0.019985, -0.020784, -0.021583, -0.019718, -0.020251, -0.017587, -0.016787, -0.01732, -0.019985, -0.020251, -0.019718, -0.02185, -0.018119, -0.019718, -0.018919, -0.019718, -0.018652, -0.018652, -0.019452, -0.018652, -0.018652, -0.019718, -0.019452, -0.019452, -0.018652, -0.01732, -0.019452, -0.019185, -0.018919, -0.019985, -0.017853, -0.022116, -0.015988, -0.022916, -0.019718, -0.020251, -0.018652, -0.016521, -0.018919, -0.019985, -0.019718, -0.021051, -0.018386, -0.021583, -0.018386, -0.020784, -0.018386, -0.018119, -0.019452, -0.018386, -0.020251, -0.019452, -0.019718, -0.019985, -0.019452, -0.018919, -0.021051, -0.020251, -0.019185, -0.020251, -0.019985, -0.018386, -0.016254, -0.022383, -0.018652, -0.018119, -0.017054, -0.020784, -0.019452, -0.018386, -0.020518, -0.018652, -0.020518, -0.021583, -0.018919, -0.019985, -0.019985, -0.019718, -0.019718, -0.016521, -0.019452, -0.019185, -0.018386, -0.020784, -0.017587, -0.018652, -0.01732, -0.019185, -0.017853, -0.019185, -0.019452, -0.018652, -0.018386, -0.018119, -0.020784, -0.018119, -0.020251, -0.019185, -0.020784, -0.019718, -0.021051, -0.018919, -0.018919, -0.020251, -0.019185, -0.018119, -0.017587, -0.020251, -0.020518, -0.021583, -0.020518, -0.020518, -0.018386, -0.017054, -0.019985, -0.019452, -0.019718, -0.02185, -0.018119, -0.019185, -0.021051, -0.019718, -0.021317, -0.021051, -0.022116, -0.016787, -0.019718, -0.020251, -0.018919, -0.020518, -0.021051, -0.019185, -0.018119, -0.019985, -0.01732, -0.019185, -0.017587, -0.020518, -0.018386, -0.019185, -0.016787, -0.020518, -0.019452, -0.016254, -0.022116, -0.018119, -0.016254, -0.019718, -0.018652, -0.019985, -0.02185, -0.018119, -0.019985, -0.018652, -0.018386, -0.018652, -0.019718, -0.017054, -0.020784, -0.018652, -0.01732, -0.020784, -0.01732, -0.021051, -0.018652, -0.018919, -0.021583, -0.017853, -0.019718, -0.021051, -0.019718, -0.018386, -0.019718, -0.018919, -0.019718, -0.019985, -0.019452, -0.019718, -0.019718, -0.020518, -0.018919, -0.018919, -0.021317, -0.016787, -0.018919, -0.021317, -0.019452, -0.019985, -0.021317, -0.022116, -0.019718, -0.018386, -0.020518, -0.020518, -0.016521, -0.020518, -0.021583, -0.018652, -0.019985, -0.018652, -0.018652, -0.019185, -0.020784, -0.020518, -0.021051, -0.021583, -0.020251, -0.019185, -0.018119, -0.018119, -0.017853, -0.02185, -0.020251, -0.020518, -0.017853, -0.018652, -0.018119, -0.019452, -0.018652, -0.018919, -0.020251, -0.017853, -0.020251, -0.018119, -0.019452, -0.016787, -0.018919, -0.019185, -0.020784, -0.01732, -0.020784, -0.018386, -0.01732, -0.020518, -0.019718]"
2140,"[0.395043, 0.452504, 0.416591, 0.373495, 0.488417, 0.368707, 0.409408, 0.409408, 0.380678, 0.430956, 0.488417, 0.411803, 0.37589, 0.435745, 0.493206, 0.385466, 0.385466, 0.402226, 0.40462, 0.430956, 0.462081, 0.414197, 0.402226, 0.45011, 0.471658, 0.402226, 0.445322, 0.464475, 0.390255, 0.411803, 0.392649, 0.45011, 0.418985, 0.42138, 0.488417, 0.3304, 0.37589, 0.483629, 0.354342, 0.414197, 0.488417, 0.445322, 0.347159, 0.407014, 0.411803, 0.418985, 0.366313, 0.433351, 0.426168, 0.328006, 0.459687, 0.423774, 0.356736, 0.416591, 0.423774, 0.433351, 0.399832, 0.40462, 0.426168, 0.440533, 0.378284, 0.428562, 0.380678, 0.469264, 0.40462, 0.493206, 0.361524, 0.442927, 0.45011, 0.395043, 0.390255, 0.45011, 0.40462, 0.416591, 0.438139, 0.442927, 0.428562, 0.380678, 0.402226, 0.433351, 0.430956, 0.438139, 0.502782, 0.385466, 0.42138, 0.411803, 0.407014, 0.476446, 0.454898, 0.407014, 0.390255, 0.35913, 0.371101, 0.387861, 0.378284, 0.469264, 0.347159, 0.383072, 0.402226, 0.35913, 0.328006, 0.42138, 0.416591, 0.385466, 0.476446, 0.45011, 0.40462, 0.392649, 0.435745, 0.361524, 0.373495, 0.433351, 0.462081, 0.390255, 0.435745, 0.414197, 0.45011, 0.476446, 0.488417, 0.368707, 0.349553, 0.469264, 0.40462, 0.344765, 0.37589, 0.399832, 0.430956, 0.383072, 0.438139, 0.416591, 0.402226, 0.378284, 0.40462, 0.399832, 0.407014, 0.411803, 0.416591, 0.354342, 0.390255, 0.411803, 0.37589, 0.428562, 0.457293, 0.392649, 0.447716, 0.42138, 0.363919, 0.368707, 0.407014, 0.457293, 0.363919, 0.390255, 0.42138, 0.416591, 0.342371, 0.37589, 0.407014, 0.351948, 0.411803, 0.409408, 0.351948, 0.409408, 0.464475, 0.440533, 0.392649, 0.40462, 0.440533, 0.361524, 0.459687, 0.402226, 0.45011, 0.380678, 0.502782, 0.457293, 0.385466, 0.395043, 0.469264, 0.328006, 0.380678, 0.469264, 0.411803, 0.409408, 0.37589, 0.474052, 0.392649, 0.409408, 0.447716, 0.387861, 0.378284, 0.40462, 0.462081, 0.40462, 0.373495, 0.409408, 0.368707, 0.407014, 0.442927, 0.414197, 0.335188, 0.385466, 0.440533, 0.373495, 0.402226, 0.395043, 0.42138, 0.368707, 0.433351, 0.442927, 0.335188, 0.416591, 0.476446, 0.373495, 0.342371, 0.418985, 0.380678, 0.347159, 0.42138, 0.397437, 0.351948, 0.35913, 0.497994, 0.438139, 0.335188, 0.380678, 0.416591, 0.318429, 0.380678, 0.399832, 0.387861, 0.351948, 0.457293, 0.397437, 0.430956, 0.392649, 0.399832, 0.387861, 0.392649, 0.371101, 0.414197, 0.37589, 0.428562, 0.42138, 0.371101, 0.361524, 0.402226, 0.426168, 0.40462, 0.459687, 0.378284, 0.335188, 0.430956, 0.347159, 0.378284, 0.440533, 0.533907, 0.407014, 0.486023, 0.428562, 0.301669, 0.373495, 0.363919, 0.512359, 0.361524, 0.347159, 0.447716, 0.373495, 0.347159, 0.414197, 0.438139, 0.363919, 0.366313, 0.418985, 0.402226, 0.409408, 0.411803, 0.438139, 0.435745, 0.390255, 0.414197, 0.328006, 0.37589, 0.402226, 0.42138, 0.380678, 0.490811, 0.414197, 0.299275, 0.490811, 0.466869, 0.464475, 0.402226, 0.509965, 0.430956, 0.390255, 0.457293, 0.387861, 0.407014, 0.411803, 0.361524, 0.294487]","[-0.550666, -0.4956, -0.519542, -0.517148, -0.562637, -0.507571, -0.493206, -0.52433, -0.521936, -0.519542, -0.509965, -0.54109, -0.521936, -0.483629, -0.486023, -0.512359, -0.471658, -0.543484, -0.557849, -0.588974, -0.517148, -0.56982, -0.538695, -0.536301, -0.577003, -0.529119, -0.466869, -0.562637, -0.572214, -0.586579, -0.560243, -0.521936, -0.562637, -0.533907, -0.512359, -0.490811, -0.531513, -0.548272, -0.500388, -0.488417, -0.548272, -0.526724, -0.536301, -0.536301, -0.512359, -0.493206, -0.505177, -0.493206, -0.476446, -0.529119, -0.474052, -0.567426, -0.497994, -0.567426, -0.591368, -0.553061, -0.505177, -0.572214, -0.45011, -0.536301, -0.4956, -0.531513, -0.509965, -0.512359, -0.538695, -0.488417, -0.553061, -0.52433, -0.493206, -0.486023, -0.476446, -0.459687, -0.543484, -0.545878, -0.553061, -0.560243, -0.562637, -0.521936, -0.526724, -0.519542, -0.545878, -0.548272, -0.548272, -0.507571, -0.505177, -0.521936, -0.488417, -0.507571, -0.517148, -0.519542, -0.507571, -0.500388, -0.586579, -0.517148, -0.454898, -0.509965, -0.567426, -0.543484, -0.531513, -0.545878, -0.567426, -0.469264, -0.529119, -0.517148, -0.553061, -0.507571, -0.531513, -0.486023, -0.514753, -0.521936, -0.545878, -0.533907, -0.529119, -0.488417, -0.454898, -0.502782, -0.550666, -0.488417, -0.545878, -0.509965, -0.538695, -0.533907, -0.543484, -0.493206, -0.514753, -0.512359, -0.474052, -0.481235, -0.4956, -0.442927, -0.565032, -0.4956, -0.531513, -0.536301, -0.519542, -0.517148, -0.500388, -0.526724, -0.52433, -0.497994, -0.493206, -0.588974, -0.486023, -0.596156, -0.509965, -0.483629, -0.531513, -0.526724, -0.531513, -0.493206, -0.526724, -0.565032, -0.500388, -0.581791, -0.543484, -0.557849, -0.529119, -0.553061, -0.560243, -0.519542, -0.514753, -0.490811, -0.519542, -0.562637, -0.493206, -0.505177, -0.533907, -0.514753, -0.533907, -0.543484, -0.536301, -0.56982, -0.526724, -0.488417, -0.509965, -0.553061, -0.531513, -0.505177, -0.512359, -0.526724, -0.529119, -0.517148, -0.536301, -0.533907, -0.54109, -0.519542, -0.562637, -0.531513, -0.483629, -0.490811, -0.548272, -0.521936, -0.488417, -0.509965, -0.512359, -0.56982, -0.553061, -0.581791, -0.56982, -0.517148, -0.517148, -0.555455, -0.514753, -0.514753, -0.526724, -0.557849, -0.481235, -0.521936, -0.550666, -0.536301, -0.452504, -0.54109, -0.512359, -0.481235, -0.548272, -0.533907, -0.562637, -0.533907, -0.497994, -0.529119, -0.526724, -0.526724, -0.548272, -0.545878, -0.560243, -0.507571, -0.509965, -0.579397, -0.514753, -0.519542, -0.514753, -0.536301, -0.548272, -0.529119, -0.526724, -0.555455, -0.502782, -0.538695, -0.517148, -0.519542, -0.45011, -0.548272, -0.550666, -0.4956, -0.529119, -0.476446, -0.493206, -0.603339, -0.483629, -0.497994, -0.529119, -0.452504, -0.502782, -0.557849, -0.545878, -0.507571, -0.517148, -0.4956, -0.47884, -0.581791, -0.529119, -0.514753, -0.543484, -0.457293, -0.519542, -0.4956, -0.54109, -0.521936, -0.521936, -0.469264, -0.483629, -0.531513, -0.533907, -0.459687, -0.553061, -0.509965, -0.548272, -0.543484, -0.486023, -0.543484, -0.560243, -0.493206, -0.584185, -0.536301, -0.529119, -0.538695, -0.493206, -0.490811, -0.457293, -0.605733, -0.560243, -0.514753, -0.519542, -0.512359, -0.474052, -0.562637, -0.529119, -0.548272, -0.517148, -0.588974]","[9.354146, 9.375694, 9.287108, 9.435549, 9.334992, 9.378088, 9.442732, 9.409213, 9.409213, 9.318233, 9.306262, 9.40203, 9.399636, 9.320627, 9.330204, 9.363723, 9.394848, 9.363723, 9.351752, 9.382876, 9.303867, 9.296685, 9.375694, 9.349358, 9.287108, 9.354146, 9.275137, 9.411607, 9.354146, 9.349358, 9.325416, 9.382876, 9.339781, 9.392453, 9.299079, 9.31105, 9.294291, 9.279925, 9.378088, 9.382876, 9.244013, 9.325416, 9.272743, 9.356541, 9.423578, 9.416395, 9.435549, 9.354146, 9.44752, 9.423578, 9.31105, 9.378088, 9.370906, 9.346964, 9.392453, 9.299079, 9.25359, 9.433155, 9.363723, 9.28232, 9.318233, 9.344569, 9.363723, 9.323022, 9.387665, 9.392453, 9.380483, 9.363723, 9.303867, 9.313444, 9.363723, 9.344569, 9.313444, 9.330204, 9.26556, 9.375694, 9.392453, 9.454702, 9.339781, 9.330204, 9.349358, 9.40203, 9.390059, 9.461885, 9.263166, 9.382876, 9.390059, 9.380483, 9.406818, 9.361329, 9.387665, 9.301474, 9.356541, 9.294291, 9.263166, 9.390059, 9.382876, 9.356541, 9.368511, 9.330204, 9.433155, 9.31105, 9.325416, 9.339781, 9.399636, 9.301474, 9.234436, 9.464279, 9.334992, 9.382876, 9.313444, 9.315839, 9.301474, 9.358934, 9.366117, 9.411607, 9.433155, 9.409213, 9.442732, 9.270349, 9.346964, 9.404425, 9.306262, 9.433155, 9.337387, 9.332599, 9.356541, 9.394848, 9.323022, 9.397242, 9.277532, 9.306262, 9.366117, 9.320627, 9.349358, 9.370906, 9.344569, 9.32781, 9.390059, 9.433155, 9.392453, 9.323022, 9.356541, 9.375694, 9.351752, 9.370906, 9.387665, 9.440337, 9.461885, 9.421184, 9.332599, 9.375694, 9.361329, 9.351752, 9.397242, 9.323022, 9.382876, 9.332599, 9.291897, 9.334992, 9.363723, 9.32781, 9.31105, 9.330204, 9.411607, 9.306262, 9.454702, 9.433155, 9.323022, 9.425972, 9.334992, 9.234436, 9.349358, 9.270349, 9.294291, 9.380483, 9.433155, 9.356541, 9.3733, 9.351752, 9.40203, 9.351752, 9.411607, 9.342175, 9.318233, 9.330204, 9.358934, 9.387665, 9.351752, 9.344569, 9.370906, 9.32781, 9.313444, 9.41879, 9.368511, 9.303867, 9.380483, 9.387665, 9.28232, 9.361329, 9.416395, 9.387665, 9.296685, 9.411607, 9.421184, 9.433155, 9.349358, 9.358934, 9.31105, 9.358934, 9.387665, 9.31105, 9.40203, 9.392453, 9.351752, 9.267955, 9.406818, 9.337387, 9.351752, 9.337387, 9.308656, 9.351752, 9.351752, 9.342175, 9.41879, 9.332599, 9.356541, 9.334992, 9.399636, 9.421184, 9.349358, 9.387665, 9.442732, 9.3733, 9.339781, 9.394848, 9.325416, 9.270349, 9.332599, 9.303867, 9.315839, 9.40203, 9.382876, 9.337387, 9.399636, 9.291897, 9.390059, 9.351752, 9.361329, 9.363723, 9.351752, 9.394848, 9.375694, 9.454702, 9.366117, 9.284714, 9.390059, 9.437943, 9.421184, 9.392453, 9.299079, 9.346964, 9.31105, 9.380483, 9.41879, 9.366117, 9.466674, 9.433155, 9.306262, 9.414001, 9.440337, 9.325416, 9.31105, 9.349358, 9.270349, 9.342175, 9.361329, 9.351752, 9.368511, 9.385271, 9.425972, 9.363723, 9.425972, 9.303867, 9.411607, 9.320627, 9.385271, 9.380483, 9.387665, 9.390059, 9.368511, 9.356541, 9.375694, 9.380483, 9.291897, 9.296685, 9.425972, 9.251195, 9.320627, 9.370906]","[-0.006395, -0.007727, -0.006129, -0.006928, -0.006662, -0.007994, -0.007461, -0.006129, -0.008793, -0.006928, -0.010392, -0.010658, -0.004263, -0.006395, -0.007461, -0.006129, -0.009326, -0.005862, -0.006662, -0.009593, -0.009326, -0.010658, -0.00906, -0.00826, -0.011458, -0.00826, -0.005329, -0.007194, -0.008527, -0.006928, -0.008527, -0.007194, -0.005596, -0.008793, -0.006928, -0.008527, -0.00906, -0.007727, -0.007194, -0.007461, -0.007727, -0.008527, -0.009326, -0.006928, -0.009859, -0.007461, -0.007461, -0.007994, -0.00906, -0.007461, -0.007461, -0.006928, -0.00826, -0.010392, -0.007994, -0.007194, -0.007194, -0.006129, -0.009326, -0.007461, -0.007994, -0.00453, -0.006928, -0.007461, -0.008527, -0.007994, -0.006395, -0.008527, -0.00906, -0.00826, -0.00373, -0.009326, -0.006662, -0.00826, -0.006928, -0.005862, -0.007727, -0.011191, -0.006129, -0.007727, -0.007994, -0.008527, -0.005862, -0.009326, -0.00826, -0.00826, -0.007194, -0.008793, -0.007727, -0.008527, -0.005596, -0.009326, -0.006395, -0.007194, -0.006928, -0.007194, -0.006662, -0.007727, -0.008527, -0.006129, -0.009326, -0.00826, -0.007727, -0.006129, -0.007461, -0.008527, -0.005329, -0.007461, -0.005862, -0.006129, -0.005862, -0.006129, -0.009593, -0.007461, -0.005329, -0.00826, -0.006928, -0.007994, -0.006129, -0.005063, -0.010392, -0.005063, -0.008527, -0.009326, -0.010392, -0.005862, -0.005329, -0.011191, -0.006662, -0.005862, -0.006395, -0.002665, -0.00906, -0.006129, -0.005063, -0.006129, -0.006129, -0.006928, -0.006395, -0.004796, -0.007994, -0.007194, -0.010392, -0.009859, -0.005862, -0.005063, -0.008793, -0.007194, -0.00826, -0.007461, -0.009593, -0.007727, -0.005329, -0.008527, -0.006395, -0.006928, -0.008527, -0.009593, -0.006395, -0.009593, -0.00906, -0.004263, -0.007461, -0.007194, -0.007727, -0.00826, -0.00826, -0.009326, -0.006662, -0.009593, -0.007461, -0.008793, -0.009593, -0.007727, -0.00906, -0.007994, -0.006395, -0.005862, -0.006395, -0.007727, -0.007727, -0.007727, -0.005063, -0.007727, -0.007194, -0.006129, -0.007994, -0.005329, -0.005596, -0.006129, -0.007461, -0.005596, -0.007461, -0.008527, -0.006662, -0.007727, -0.00906, -0.008527, -0.008793, -0.00826, -0.011191, -0.00826, -0.00826, -0.005329, -0.005596, -0.006928, -0.007727, -0.006662, -0.006395, -0.008527, -0.005596, -0.006395, -0.005329, -0.006662, -0.006129, -0.007994, -0.007194, -0.007727, -0.005063, -0.006928, -0.006662, -0.005063, -0.007727, -0.007194, -0.007994, -0.005063, -0.006662, -0.00826, -0.007727, -0.007994, -0.008527, -0.00826, -0.007194, -0.007727, -0.007727, -0.011458, -0.008793, -0.007461, -0.007994, -0.009326, -0.007727, -0.008793, -0.006662, -0.005862, -0.008527, -0.005862, -0.006928, -0.006395, -0.007727, -0.007461, -0.008527, -0.008527, -0.008527, -0.007994, -0.007727, -0.007461, -0.006395, -0.006395, -0.005596, -0.008527, -0.007194, -0.008527, -0.007994, -0.006395, -0.006928, -0.012257, -0.007461, -0.008793, -0.00906, -0.007727, -0.006395, -0.006928, -0.007194, -0.007461, -0.007194, -0.00826, -0.008527, -0.006928, -0.007194, -0.007194, -0.009593, -0.004263, -0.006662, -0.005596, -0.006928, -0.007994, -0.010392, -0.006662, -0.006662, -0.007727, -0.00826, -0.007194, -0.006928, -0.008527, -0.005596, -0.006662, -0.007994, -0.007194, -0.008527, -0.007994]","[-0.043167, -0.041568, -0.0429, -0.040769, -0.042368, -0.041035, -0.041302, -0.043433, -0.040236, -0.042368, -0.041835, -0.042634, -0.043966, -0.039703, -0.041302, -0.041035, -0.043433, -0.044766, -0.044233, -0.042368, -0.040502, -0.041035, -0.041835, -0.047164, -0.041835, -0.041035, -0.042634, -0.042368, -0.040236, -0.041302, -0.0429, -0.042634, -0.0429, -0.039703, -0.040236, -0.045299, -0.045032, -0.039703, -0.041568, -0.0437, -0.041568, -0.043167, -0.041302, -0.0429, -0.040769, -0.044233, -0.041568, -0.042101, -0.042368, -0.044499, -0.042634, -0.045565, -0.041302, -0.040502, -0.043966, -0.042101, -0.043433, -0.042634, -0.042634, -0.041035, -0.042368, -0.041035, -0.041302, -0.045299, -0.040769, -0.040502, -0.040769, -0.042368, -0.040236, -0.041302, -0.043433, -0.040502, -0.041568, -0.044766, -0.042634, -0.041835, -0.045565, -0.041835, -0.044499, -0.041835, -0.044766, -0.0429, -0.043966, -0.043433, -0.03917, -0.041835, -0.041835, -0.043167, -0.039703, -0.044499, -0.043433, -0.040769, -0.0437, -0.040502, -0.041035, -0.046364, -0.041568, -0.042101, -0.042101, -0.042634, -0.042368, -0.040769, -0.042634, -0.042101, -0.043966, -0.041835, -0.043433, -0.042101, -0.040769, -0.042368, -0.043167, -0.042634, -0.039969, -0.043167, -0.045832, -0.042634, -0.045565, -0.041035, -0.041568, -0.043966, -0.040769, -0.042101, -0.0429, -0.043167, -0.0429, -0.041302, -0.042634, -0.0429, -0.042368, -0.044499, -0.040502, -0.039436, -0.041835, -0.041568, -0.040502, -0.040502, -0.03917, -0.041302, -0.041302, -0.044766, -0.042634, -0.044233, -0.041302, -0.0429, -0.041035, -0.043167, -0.045032, -0.0437, -0.041835, -0.042634, -0.041302, -0.041302, -0.0429, -0.041835, -0.040769, -0.039436, -0.041302, -0.041835, -0.045299, -0.043433, -0.041835, -0.041035, -0.042368, -0.041835, -0.042634, -0.040769, -0.041835, -0.0437, -0.042101, -0.041568, -0.038904, -0.042368, -0.042101, -0.042101, -0.0437, -0.042368, -0.044233, -0.042101, -0.040236, -0.043167, -0.041568, -0.041835, -0.041835, -0.040502, -0.044233, -0.043167, -0.041568, -0.043966, -0.043966, -0.041302, -0.0429, -0.039969, -0.042101, -0.044233, -0.040769, -0.041568, -0.042634, -0.044499, -0.043167, -0.042368, -0.043966, -0.042368, -0.041302, -0.0429, -0.042634, -0.042101, -0.044233, -0.043433, -0.044233, -0.043167, -0.041835, -0.041568, -0.041568, -0.0429, -0.042101, -0.0429, -0.039969, -0.041568, -0.046897, -0.042101, -0.0429, -0.041302, -0.043433, -0.041302, -0.041568, -0.042368, -0.044233, -0.042368, -0.040769, -0.042368, -0.040236, -0.041302, -0.043433, -0.043433, -0.044233, -0.045032, -0.042101, -0.044233, -0.042368, -0.0437, -0.043966, -0.0429, -0.039969, -0.042101, -0.042368, -0.042101, -0.045565, -0.042368, -0.041302, -0.041302, -0.044766, -0.041835, -0.039969, -0.040236, -0.042634, -0.0429, -0.044499, -0.042101, -0.043966, -0.044499, -0.042101, -0.0429, -0.042634, -0.041835, -0.041835, -0.042368, -0.042634, -0.043966, -0.041568, -0.043966, -0.043433, -0.043433, -0.043966, -0.040769, -0.042634, -0.043167, -0.045299, -0.040769, -0.042368, -0.039969, -0.041835, -0.041835, -0.042634, -0.045299, -0.042634, -0.041835, -0.043966, -0.040502, -0.045032, -0.042368, -0.041302, -0.043433, -0.044499, -0.044766, -0.0437, -0.043433, -0.041035, -0.042368, -0.037838, -0.041035]","[-0.018119, -0.017587, -0.01732, -0.018652, -0.016254, -0.022116, -0.017853, -0.018119, -0.018652, -0.01732, -0.022383, -0.020251, -0.024515, -0.020251, -0.020251, -0.019185, -0.018652, -0.018119, -0.02185, -0.018919, -0.019452, -0.018919, -0.021051, -0.018919, -0.017853, -0.015455, -0.021051, -0.019718, -0.019985, -0.021317, -0.022116, -0.020251, -0.019985, -0.021051, -0.021051, -0.019718, -0.018119, -0.020784, -0.021051, -0.018386, -0.018919, -0.020251, -0.021317, -0.016521, -0.019718, -0.022116, -0.017587, -0.019718, -0.018119, -0.021051, -0.019185, -0.022116, -0.019452, -0.019185, -0.019985, -0.019718, -0.019452, -0.015721, -0.019185, -0.017853, -0.019985, -0.01732, -0.021583, -0.021051, -0.021317, -0.019985, -0.020251, -0.019185, -0.020251, -0.017054, -0.019985, -0.018919, -0.02185, -0.017587, -0.018119, -0.017587, -0.018119, -0.019185, -0.020518, -0.020784, -0.020518, -0.019185, -0.020518, -0.019452, -0.021051, -0.019185, -0.018652, -0.019452, -0.018652, -0.019718, -0.021583, -0.021051, -0.016521, -0.018919, -0.018652, -0.021051, -0.01732, -0.019452, -0.019185, -0.01732, -0.02185, -0.017853, -0.022116, -0.022649, -0.018652, -0.017853, -0.020518, -0.023449, -0.018386, -0.020518, -0.015988, -0.019185, -0.020518, -0.019452, -0.018652, -0.021051, -0.015721, -0.019185, -0.021583, -0.022116, -0.020518, -0.019185, -0.023449, -0.019985, -0.019185, -0.019718, -0.022116, -0.016254, -0.020251, -0.019452, -0.01732, -0.018652, -0.019185, -0.020518, -0.019452, -0.017853, -0.021583, -0.022383, -0.018919, -0.017587, -0.018919, -0.018652, -0.019985, -0.018652, -0.02185, -0.020251, -0.018919, -0.015988, -0.018919, -0.020518, -0.02185, -0.019718, -0.017587, -0.016787, -0.019985, -0.018652, -0.018652, -0.018386, -0.01732, -0.019452, -0.019452, -0.016787, -0.020251, -0.019718, -0.017853, -0.021317, -0.018386, -0.018119, -0.017853, -0.019452, -0.019185, -0.020784, -0.019718, -0.02185, -0.018386, -0.017054, -0.017587, -0.018652, -0.01732, -0.018919, -0.019452, -0.019718, -0.019185, -0.021317, -0.018919, -0.021317, -0.017587, -0.020251, -0.018919, -0.017853, -0.017853, -0.020784, -0.022916, -0.018919, -0.02185, -0.020784, -0.018386, -0.019985, -0.019718, -0.017853, -0.022649, -0.019718, -0.021317, -0.018652, -0.021583, -0.018386, -0.018386, -0.019185, -0.016521, -0.018919, -0.01732, -0.019185, -0.018386, -0.016787, -0.016254, -0.019452, -0.017853, -0.019452, -0.019985, -0.018919, -0.018386, -0.024515, -0.019452, -0.019452, -0.021051, -0.019185, -0.018119, -0.016521, -0.017853, -0.018919, -0.018386, -0.015721, -0.018652, -0.018652, -0.019985, -0.019185, -0.020251, -0.020251, -0.019452, -0.015188, -0.016254, -0.018652, -0.020784, -0.017054, -0.019985, -0.021583, -0.017587, -0.017853, -0.018119, -0.020251, -0.019452, -0.019452, -0.019985, -0.019185, -0.016787, -0.018386, -0.018386, -0.018919, -0.018652, -0.018919, -0.019718, -0.018386, -0.020518, -0.020251, -0.020784, -0.017853, -0.019985, -0.017853, -0.018386, -0.021583, -0.022649, -0.018652, -0.01732, -0.016787, -0.019185, -0.022649, -0.019452, -0.018386, -0.018919, -0.020518, -0.018919, -0.018119, -0.020784, -0.019985, -0.017853, -0.018386, -0.019452, -0.019718, -0.018119, -0.017853, -0.019185, -0.021317, -0.017054, -0.018386, -0.018919, -0.021317, -0.023182, -0.018119, -0.020784, -0.019185]"
2144,"[0.35913, 0.409408, 0.440533, 0.390255, 0.40462, 0.392649, 0.380678, 0.514753, 0.383072, 0.438139, 0.445322, 0.45011, 0.390255, 0.428562, 0.517148, 0.426168, 0.383072, 0.447716, 0.416591, 0.323217, 0.373495, 0.442927, 0.351948, 0.373495, 0.426168, 0.414197, 0.337582, 0.483629, 0.426168, 0.409408, 0.471658, 0.411803, 0.392649, 0.390255, 0.418985, 0.409408, 0.387861, 0.430956, 0.390255, 0.414197, 0.418985, 0.486023, 0.378284, 0.371101, 0.442927, 0.471658, 0.308852, 0.466869, 0.423774, 0.368707, 0.433351, 0.414197, 0.409408, 0.349553, 0.430956, 0.454898, 0.368707, 0.423774, 0.454898, 0.390255, 0.399832, 0.457293, 0.392649, 0.368707, 0.397437, 0.385466, 0.347159, 0.409408, 0.505177, 0.339977, 0.426168, 0.514753, 0.363919, 0.390255, 0.402226, 0.457293, 0.428562, 0.402226, 0.433351, 0.368707, 0.407014, 0.409408, 0.390255, 0.42138, 0.438139, 0.402226, 0.395043, 0.387861, 0.42138, 0.316035, 0.335188, 0.426168, 0.486023, 0.344765, 0.397437, 0.476446, 0.447716, 0.306458, 0.428562, 0.435745, 0.325611, 0.392649, 0.428562, 0.397437, 0.354342, 0.435745, 0.368707, 0.361524, 0.35913, 0.409408, 0.344765, 0.37589, 0.392649, 0.430956, 0.347159, 0.347159, 0.392649, 0.445322, 0.354342, 0.452504, 0.411803, 0.411803, 0.351948, 0.399832, 0.399832, 0.402226, 0.363919, 0.402226, 0.402226, 0.392649, 0.35913, 0.452504, 0.373495, 0.332794, 0.474052, 0.442927, 0.339977, 0.45011, 0.445322, 0.306458, 0.311246, 0.447716, 0.42138, 0.390255, 0.426168, 0.40462, 0.402226, 0.363919, 0.354342, 0.445322, 0.316035, 0.31364, 0.411803, 0.339977, 0.361524, 0.397437, 0.397437, 0.387861, 0.373495, 0.363919, 0.373495, 0.407014, 0.466869, 0.351948, 0.354342, 0.435745, 0.442927, 0.328006, 0.416591, 0.469264, 0.397437, 0.373495, 0.469264, 0.428562, 0.383072, 0.380678, 0.476446, 0.351948, 0.392649, 0.399832, 0.363919, 0.440533, 0.356736, 0.438139, 0.323217, 0.399832, 0.368707, 0.371101, 0.395043, 0.433351, 0.447716, 0.418985, 0.407014, 0.430956, 0.344765, 0.383072, 0.476446, 0.368707, 0.335188, 0.452504, 0.416591, 0.332794, 0.344765, 0.42138, 0.282516, 0.35913, 0.433351, 0.407014, 0.332794, 0.368707, 0.414197, 0.35913, 0.383072, 0.486023, 0.399832, 0.325611, 0.442927, 0.476446, 0.418985, 0.442927, 0.31364, 0.407014, 0.368707, 0.395043, 0.407014, 0.37589, 0.411803, 0.452504, 0.392649, 0.383072, 0.366313, 0.351948, 0.342371, 0.378284, 0.433351, 0.354342, 0.387861, 0.402226, 0.395043, 0.399832, 0.486023, 0.354342, 0.301669, 0.423774, 0.493206, 0.447716, 0.435745, 0.490811, 0.397437, 0.347159, 0.423774, 0.418985, 0.399832, 0.466869, 0.378284, 0.399832, 0.397437, 0.416591, 0.409408, 0.354342, 0.399832, 0.454898, 0.378284, 0.332794, 0.402226, 0.390255, 0.445322, 0.440533, 0.423774, 0.395043, 0.438139, 0.435745, 0.344765, 0.368707, 0.402226, 0.320823, 0.428562, 0.459687, 0.428562, 0.371101, 0.457293, 0.445322, 0.282516, 0.363919, 0.42138, 0.428562, 0.3304, 0.457293, 0.459687, 0.390255, 0.368707, 0.409408, 0.392649, 0.399832, 0.438139, 0.344765, 0.363919, 0.454898, 0.363919, 0.35913]","[-0.54109, -0.533907, -0.447716, -0.454898, -0.4956, -0.543484, -0.555455, -0.474052, -0.502782, -0.502782, -0.462081, -0.526724, -0.533907, -0.581791, -0.47884, -0.579397, -0.538695, -0.512359, -0.509965, -0.526724, -0.512359, -0.548272, -0.531513, -0.507571, -0.519542, -0.497994, -0.512359, -0.505177, -0.584185, -0.52433, -0.538695, -0.497994, -0.574608, -0.538695, -0.466869, -0.533907, -0.474052, -0.536301, -0.529119, -0.579397, -0.519542, -0.557849, -0.545878, -0.4956, -0.466869, -0.548272, -0.507571, -0.512359, -0.4956, -0.52433, -0.565032, -0.521936, -0.526724, -0.565032, -0.488417, -0.555455, -0.553061, -0.497994, -0.567426, -0.545878, -0.526724, -0.521936, -0.4956, -0.493206, -0.493206, -0.550666, -0.579397, -0.497994, -0.514753, -0.531513, -0.543484, -0.509965, -0.464475, -0.512359, -0.507571, -0.553061, -0.61531, -0.486023, -0.512359, -0.505177, -0.59855, -0.521936, -0.509965, -0.4956, -0.483629, -0.565032, -0.538695, -0.543484, -0.466869, -0.550666, -0.565032, -0.533907, -0.531513, -0.497994, -0.553061, -0.533907, -0.490811, -0.579397, -0.493206, -0.457293, -0.521936, -0.591368, -0.517148, -0.521936, -0.502782, -0.531513, -0.517148, -0.536301, -0.488417, -0.514753, -0.581791, -0.529119, -0.586579, -0.572214, -0.490811, -0.538695, -0.483629, -0.565032, -0.507571, -0.538695, -0.497994, -0.502782, -0.536301, -0.550666, -0.486023, -0.545878, -0.581791, -0.521936, -0.56982, -0.622492, -0.514753, -0.502782, -0.512359, -0.488417, -0.526724, -0.486023, -0.550666, -0.536301, -0.488417, -0.517148, -0.521936, -0.509965, -0.555455, -0.521936, -0.488417, -0.497994, -0.536301, -0.593762, -0.538695, -0.517148, -0.507571, -0.500388, -0.457293, -0.486023, -0.555455, -0.533907, -0.493206, -0.538695, -0.502782, -0.550666, -0.553061, -0.567426, -0.517148, -0.526724, -0.538695, -0.4956, -0.557849, -0.529119, -0.500388, -0.56982, -0.505177, -0.517148, -0.486023, -0.474052, -0.560243, -0.536301, -0.457293, -0.593762, -0.486023, -0.572214, -0.586579, -0.521936, -0.476446, -0.533907, -0.531513, -0.483629, -0.555455, -0.507571, -0.543484, -0.562637, -0.538695, -0.529119, -0.481235, -0.538695, -0.591368, -0.514753, -0.52433, -0.533907, -0.505177, -0.497994, -0.464475, -0.562637, -0.512359, -0.548272, -0.536301, -0.519542, -0.507571, -0.545878, -0.550666, -0.557849, -0.562637, -0.553061, -0.526724, -0.536301, -0.538695, -0.560243, -0.548272, -0.505177, -0.555455, -0.526724, -0.52433, -0.52433, -0.56982, -0.567426, -0.500388, -0.497994, -0.497994, -0.486023, -0.536301, -0.538695, -0.536301, -0.514753, -0.56982, -0.512359, -0.562637, -0.588974, -0.574608, -0.519542, -0.548272, -0.529119, -0.553061, -0.517148, -0.605733, -0.505177, -0.517148, -0.505177, -0.471658, -0.52433, -0.574608, -0.536301, -0.536301, -0.567426, -0.519542, -0.509965, -0.4956, -0.557849, -0.497994, -0.505177, -0.536301, -0.531513, -0.526724, -0.560243, -0.629675, -0.550666, -0.517148, -0.52433, -0.562637, -0.536301, -0.533907, -0.481235, -0.521936, -0.531513, -0.529119, -0.545878, -0.543484, -0.493206, -0.521936, -0.533907, -0.517148, -0.505177, -0.493206, -0.507571, -0.54109, -0.548272, -0.521936, -0.545878, -0.531513, -0.579397, -0.502782, -0.560243, -0.56982, -0.502782, -0.584185, -0.591368, -0.517148, -0.505177, -0.550666, -0.512359, -0.481235, -0.502782]","[9.334992, 9.318233, 9.380483, 9.351752, 9.411607, 9.315839, 9.361329, 9.390059, 9.354146, 9.366117, 9.406818, 9.263166, 9.346964, 9.339781, 9.394848, 9.318233, 9.392453, 9.303867, 9.433155, 9.354146, 9.354146, 9.330204, 9.294291, 9.44752, 9.287108, 9.370906, 9.299079, 9.366117, 9.394848, 9.318233, 9.437943, 9.397242, 9.332599, 9.406818, 9.368511, 9.334992, 9.380483, 9.461885, 9.342175, 9.330204, 9.332599, 9.416395, 9.40203, 9.318233, 9.334992, 9.315839, 9.306262, 9.287108, 9.323022, 9.375694, 9.378088, 9.375694, 9.318233, 9.325416, 9.423578, 9.354146, 9.299079, 9.488221, 9.287108, 9.370906, 9.452309, 9.279925, 9.229648, 9.41879, 9.31105, 9.325416, 9.323022, 9.32781, 9.411607, 9.363723, 9.229648, 9.330204, 9.40203, 9.284714, 9.397242, 9.277532, 9.354146, 9.337387, 9.346964, 9.428367, 9.241618, 9.354146, 9.354146, 9.330204, 9.366117, 9.363723, 9.32781, 9.287108, 9.366117, 9.346964, 9.260772, 9.399636, 9.294291, 9.28232, 9.344569, 9.428367, 9.356541, 9.291897, 9.394848, 9.380483, 9.334992, 9.325416, 9.315839, 9.32781, 9.279925, 9.423578, 9.291897, 9.387665, 9.346964, 9.291897, 9.351752, 9.466674, 9.31105, 9.404425, 9.356541, 9.275137, 9.332599, 9.346964, 9.260772, 9.318233, 9.342175, 9.3733, 9.414001, 9.409213, 9.325416, 9.361329, 9.363723, 9.289502, 9.303867, 9.349358, 9.308656, 9.390059, 9.255983, 9.337387, 9.349358, 9.41879, 9.404425, 9.325416, 9.370906, 9.356541, 9.334992, 9.361329, 9.354146, 9.3733, 9.315839, 9.334992, 9.332599, 9.366117, 9.392453, 9.368511, 9.342175, 9.272743, 9.394848, 9.272743, 9.337387, 9.332599, 9.428367, 9.289502, 9.485827, 9.315839, 9.358934, 9.308656, 9.40203, 9.330204, 9.346964, 9.344569, 9.406818, 9.334992, 9.378088, 9.337387, 9.358934, 9.3733, 9.387665, 9.325416, 9.392453, 9.435549, 9.44752, 9.454702, 9.306262, 9.375694, 9.416395, 9.284714, 9.361329, 9.344569, 9.433155, 9.332599, 9.363723, 9.337387, 9.428367, 9.32781, 9.385271, 9.41879, 9.397242, 9.454702, 9.385271, 9.358934, 9.378088, 9.404425, 9.342175, 9.346964, 9.301474, 9.390059, 9.318233, 9.394848, 9.416395, 9.342175, 9.437943, 9.414001, 9.227253, 9.375694, 9.394848, 9.296685, 9.277532, 9.315839, 9.40203, 9.351752, 9.399636, 9.356541, 9.320627, 9.378088, 9.382876, 9.291897, 9.344569, 9.3733, 9.272743, 9.330204, 9.368511, 9.397242, 9.433155, 9.437943, 9.3733, 9.409213, 9.291897, 9.342175, 9.390059, 9.306262, 9.344569, 9.40203, 9.354146, 9.349358, 9.390059, 9.382876, 9.409213, 9.354146, 9.380483, 9.382876, 9.296685, 9.339781, 9.416395, 9.392453, 9.380483, 9.425972, 9.303867, 9.478644, 9.390059, 9.404425, 9.313444, 9.485827, 9.361329, 9.349358, 9.349358, 9.387665, 9.296685, 9.320627, 9.387665, 9.404425, 9.330204, 9.354146, 9.291897, 9.406818, 9.306262, 9.368511, 9.421184, 9.349358, 9.318233, 9.356541, 9.337387, 9.337387, 9.380483, 9.361329, 9.356541, 9.349358, 9.428367, 9.3733, 9.3733, 9.421184, 9.332599, 9.318233, 9.397242, 9.334992, 9.375694, 9.303867, 9.409213, 9.354146, 9.363723, 9.332599, 9.296685, 9.411607, 9.323022, 9.346964]","[-0.005596, -0.005862, -0.008793, -0.00906, -0.00826, -0.008793, -0.009593, -0.009593, -0.005862, -0.007994, -0.005063, -0.007727, -0.006129, -0.008527, -0.00826, -0.007194, -0.009326, -0.009593, -0.004796, -0.007461, -0.00826, -0.010126, -0.007994, -0.007461, -0.004796, -0.006662, -0.008527, -0.009593, -0.008527, -0.007461, -0.007994, -0.008527, -0.007727, -0.006129, -0.00826, -0.007461, -0.006928, -0.007727, -0.006662, -0.009326, -0.007727, -0.005596, -0.006662, -0.008527, -0.00826, -0.006395, -0.007194, -0.008527, -0.007194, -0.007194, -0.005596, -0.007194, -0.00906, -0.005596, -0.009859, -0.008527, -0.005862, -0.006662, -0.008793, -0.009593, -0.009593, -0.007194, -0.005596, -0.007194, -0.005862, -0.006395, -0.008793, -0.007461, -0.006662, -0.007727, -0.005862, -0.010126, -0.007994, -0.007994, -0.005063, -0.006395, -0.00906, -0.00826, -0.006928, -0.009593, -0.006662, -0.00906, -0.007994, -0.00826, -0.007461, -0.007994, -0.005596, -0.005862, -0.005596, -0.007994, -0.006129, -0.010392, -0.006395, -0.007194, -0.00826, -0.005596, -0.006129, -0.007994, -0.005063, -0.007194, -0.007727, -0.007727, -0.005862, -0.006395, -0.007727, -0.006928, -0.006928, -0.007461, -0.008527, -0.006395, -0.006662, -0.005596, -0.007194, -0.00826, -0.005862, -0.007727, -0.007727, -0.006129, -0.007727, -0.006662, -0.007461, -0.00826, -0.007994, -0.009859, -0.007194, -0.00826, -0.010126, -0.006928, -0.006129, -0.005329, -0.010925, -0.006129, -0.009593, -0.009326, -0.007994, -0.007727, -0.004263, -0.008793, -0.006395, -0.007994, -0.008527, -0.007994, -0.010126, -0.00453, -0.006129, -0.00826, -0.008793, -0.006928, -0.007461, -0.009593, -0.009859, -0.008793, -0.006129, -0.007994, -0.005063, -0.006129, -0.005596, -0.005862, -0.006662, -0.006928, -0.006928, -0.007461, -0.007461, -0.006395, -0.005862, -0.007194, -0.00826, -0.00826, -0.006928, -0.008793, -0.007994, -0.006928, -0.006662, -0.00906, -0.007194, -0.006662, -0.007194, -0.005862, -0.007194, -0.005063, -0.008793, -0.006928, -0.006395, -0.007194, -0.007727, -0.005862, -0.007461, -0.007194, -0.009593, -0.007994, -0.00906, -0.008527, -0.007727, -0.00826, -0.005862, -0.007194, -0.007194, -0.006129, -0.007994, -0.006395, -0.007461, -0.005596, -0.009593, -0.008527, -0.007994, -0.007994, -0.006129, -0.00906, -0.00826, -0.009326, -0.007461, -0.00826, -0.008793, -0.00826, -0.007727, -0.008527, -0.006395, -0.006395, -0.007994, -0.008793, -0.006928, -0.007727, -0.005862, -0.007727, -0.007994, -0.005862, -0.00906, -0.006395, -0.007727, -0.007994, -0.00826, -0.006395, -0.007727, -0.00906, -0.006129, -0.00826, -0.006395, -0.009593, -0.005596, -0.007727, -0.007727, -0.005596, -0.005862, -0.005862, -0.007194, -0.006662, -0.006662, -0.00826, -0.006662, -0.007994, -0.003997, -0.005596, -0.005063, -0.007461, -0.005329, -0.006129, -0.008793, -0.00906, -0.006928, -0.007461, -0.009859, -0.008527, -0.007994, -0.005862, -0.00906, -0.00906, -0.00826, -0.007461, -0.007461, -0.010126, -0.006928, -0.007194, -0.005063, -0.007727, -0.007994, -0.007727, -0.00826, -0.006395, -0.008527, -0.006129, -0.00906, -0.00453, -0.009326, -0.007194, -0.006928, -0.007194, -0.007194, -0.006129, -0.005329, -0.006395, -0.007194, -0.00906, -0.007727, -0.005329, -0.005862, -0.007194, -0.00906, -0.007727, -0.006395, -0.010392]","[-0.042101, -0.043433, -0.042101, -0.041302, -0.042634, -0.046631, -0.041035, -0.039703, -0.042634, -0.042101, -0.043433, -0.044233, -0.0429, -0.042634, -0.042101, -0.041035, -0.044233, -0.0437, -0.043433, -0.043966, -0.043433, -0.043966, -0.043966, -0.043433, -0.042101, -0.044766, -0.0437, -0.040769, -0.0429, -0.042101, -0.044233, -0.042101, -0.043966, -0.043433, -0.044766, -0.042368, -0.042368, -0.043966, -0.041835, -0.041302, -0.045032, -0.041568, -0.040769, -0.043433, -0.043167, -0.038904, -0.0429, -0.040502, -0.042101, -0.043966, -0.042101, -0.041835, -0.043167, -0.041035, -0.041835, -0.039436, -0.041568, -0.043167, -0.041302, -0.042101, -0.0437, -0.041302, -0.040502, -0.042634, -0.041568, -0.042368, -0.041835, -0.042101, -0.039969, -0.046098, -0.043167, -0.044499, -0.040236, -0.040236, -0.0429, -0.045299, -0.043966, -0.041302, -0.043167, -0.042368, -0.041302, -0.041835, -0.041568, -0.043433, -0.043966, -0.0429, -0.043167, -0.041568, -0.045565, -0.0429, -0.043433, -0.0429, -0.045032, -0.042634, -0.041302, -0.042101, -0.042101, -0.040502, -0.041835, -0.044233, -0.044766, -0.042634, -0.040769, -0.0429, -0.042101, -0.040502, -0.043433, -0.03917, -0.040236, -0.041835, -0.0437, -0.043433, -0.041035, -0.042634, -0.043966, -0.044766, -0.041568, -0.041835, -0.0429, -0.0437, -0.042634, -0.039703, -0.0429, -0.040502, -0.043433, -0.043167, -0.045832, -0.041568, -0.044233, -0.042368, -0.043433, -0.043966, -0.0429, -0.042368, -0.043433, -0.041568, -0.044499, -0.044499, -0.042634, -0.042634, -0.041835, -0.041835, -0.040769, -0.043433, -0.040769, -0.042101, -0.042634, -0.041302, -0.041302, -0.041302, -0.045299, -0.041835, -0.041568, -0.042101, -0.042368, -0.042368, -0.040769, -0.044233, -0.042101, -0.042101, -0.0429, -0.040769, -0.0437, -0.042634, -0.042368, -0.0429, -0.040236, -0.041568, -0.044499, -0.041035, -0.042368, -0.0437, -0.043433, -0.043966, -0.043433, -0.045565, -0.043966, -0.043167, -0.040236, -0.0429, -0.043167, -0.0429, -0.042368, -0.042368, -0.042101, -0.040502, -0.042634, -0.043966, -0.042634, -0.041568, -0.043966, -0.044233, -0.041302, -0.041835, -0.041568, -0.043167, -0.040502, -0.046364, -0.041835, -0.0429, -0.041568, -0.041302, -0.040769, -0.041835, -0.0429, -0.045299, -0.042368, -0.041835, -0.041835, -0.043966, -0.0429, -0.043167, -0.042101, -0.042101, -0.0429, -0.041568, -0.044499, -0.042101, -0.042101, -0.044766, -0.042101, -0.043433, -0.046098, -0.043433, -0.044499, -0.043966, -0.0437, -0.043167, -0.042368, -0.0437, -0.0429, -0.041835, -0.042368, -0.0429, -0.040769, -0.0429, -0.045032, -0.041568, -0.042634, -0.044499, -0.0429, -0.041835, -0.043167, -0.041835, -0.0429, -0.0437, -0.041835, -0.041568, -0.0437, -0.042368, -0.042368, -0.040769, -0.043966, -0.041035, -0.041568, -0.040502, -0.046098, -0.0429, -0.043433, -0.043433, -0.043433, -0.043433, -0.041835, -0.040769, -0.0429, -0.042634, -0.0429, -0.042101, -0.043167, -0.041568, -0.041302, -0.043433, -0.042101, -0.041568, -0.0437, -0.046631, -0.043433, -0.041568, -0.0429, -0.042101, -0.040236, -0.042634, -0.042101, -0.042634, -0.041035, -0.041835, -0.041035, -0.041568, -0.041568, -0.0437, -0.043167, -0.041835, -0.040502, -0.041835, -0.042101, -0.042634, -0.040502, -0.0429, -0.043167, -0.042101]","[-0.02185, -0.021317, -0.021051, -0.020251, -0.021583, -0.019718, -0.019185, -0.020251, -0.021051, -0.019718, -0.020784, -0.018386, -0.019718, -0.016787, -0.018386, -0.018386, -0.019718, -0.018386, -0.01732, -0.015988, -0.019718, -0.021317, -0.020784, -0.019985, -0.020251, -0.019185, -0.017587, -0.017853, -0.019985, -0.021583, -0.019718, -0.020518, -0.018386, -0.021317, -0.019452, -0.018119, -0.020518, -0.015721, -0.018652, -0.019452, -0.021583, -0.018119, -0.019985, -0.020251, -0.019985, -0.021051, -0.018919, -0.018652, -0.019185, -0.019185, -0.021583, -0.018919, -0.018652, -0.017587, -0.020784, -0.018652, -0.022116, -0.019985, -0.020251, -0.020784, -0.01732, -0.021051, -0.018919, -0.018652, -0.019452, -0.01732, -0.019452, -0.019718, -0.020251, -0.018652, -0.021583, -0.018386, -0.021051, -0.017587, -0.019718, -0.020251, -0.021317, -0.019185, -0.01732, -0.018119, -0.017853, -0.020784, -0.020518, -0.017853, -0.018919, -0.018119, -0.016787, -0.018919, -0.016787, -0.020518, -0.020518, -0.021317, -0.018386, -0.019985, -0.020251, -0.018652, -0.019185, -0.017587, -0.018652, -0.020251, -0.018919, -0.019452, -0.021051, -0.021583, -0.018919, -0.018919, -0.020251, -0.018119, -0.021051, -0.018119, -0.020784, -0.018119, -0.02185, -0.019452, -0.021051, -0.016787, -0.01732, -0.019185, -0.020518, -0.017853, -0.020251, -0.017587, -0.018119, -0.018386, -0.019718, -0.019452, -0.022116, -0.018119, -0.017587, -0.023449, -0.022649, -0.018919, -0.019185, -0.019718, -0.019718, -0.020518, -0.021051, -0.02185, -0.019985, -0.016787, -0.019452, -0.019985, -0.017054, -0.018652, -0.020518, -0.021051, -0.018652, -0.021317, -0.022383, -0.020518, -0.021317, -0.020251, -0.021051, -0.018119, -0.018119, -0.023182, -0.018386, -0.020518, -0.019718, -0.020784, -0.017587, -0.018119, -0.020251, -0.019452, -0.020518, -0.019185, -0.019185, -0.019185, -0.021051, -0.017853, -0.019718, -0.020784, -0.021051, -0.017853, -0.021051, -0.019718, -0.021317, -0.020518, -0.019452, -0.018119, -0.020518, -0.018652, -0.020784, -0.019185, -0.018652, -0.019718, -0.020251, -0.023715, -0.01732, -0.020784, -0.021051, -0.01732, -0.02185, -0.021051, -0.022916, -0.016521, -0.02185, -0.018386, -0.020784, -0.019718, -0.020518, -0.019452, -0.019985, -0.018919, -0.017853, -0.015721, -0.020251, -0.017853, -0.020251, -0.020784, -0.019452, -0.020518, -0.022649, -0.020518, -0.019185, -0.02185, -0.016521, -0.020251, -0.018652, -0.020784, -0.021317, -0.018386, -0.021317, -0.022383, -0.020251, -0.019452, -0.018386, -0.021051, -0.017853, -0.019452, -0.022649, -0.019185, -0.019185, -0.017853, -0.019718, -0.020518, -0.01732, -0.018919, -0.022383, -0.018386, -0.019452, -0.018386, -0.018119, -0.02185, -0.019452, -0.016521, -0.020251, -0.017853, -0.019718, -0.021317, -0.01732, -0.018919, -0.020518, -0.019718, -0.018386, -0.019185, -0.020518, -0.023182, -0.02185, -0.019185, -0.019452, -0.019718, -0.018119, -0.020518, -0.019452, -0.018919, -0.019718, -0.020251, -0.018386, -0.018652, -0.017853, -0.019718, -0.019452, -0.018119, -0.019718, -0.021317, -0.021583, -0.01732, -0.020518, -0.018386, -0.019185, -0.019985, -0.019452, -0.016787, -0.014389, -0.017853, -0.019185, -0.022383, -0.020251, -0.015455, -0.019185, -0.018386, -0.02185, -0.019718, -0.019185, -0.018386, -0.019452, -0.019185, -0.020251, -0.019185]"
2149,"[0.390255, 0.347159, 0.430956, 0.347159, 0.433351, 0.392649, 0.40462, 0.40462, 0.385466, 0.328006, 0.418985, 0.426168, 0.366313, 0.414197, 0.351948, 0.418985, 0.366313, 0.368707, 0.342371, 0.411803, 0.418985, 0.457293, 0.37589, 0.428562, 0.397437, 0.332794, 0.392649, 0.339977, 0.418985, 0.409408, 0.399832, 0.35913, 0.37589, 0.409408, 0.471658, 0.378284, 0.397437, 0.442927, 0.385466, 0.335188, 0.399832, 0.466869, 0.356736, 0.471658, 0.497994, 0.354342, 0.292093, 0.476446, 0.423774, 0.387861, 0.339977, 0.416591, 0.371101, 0.464475, 0.423774, 0.390255, 0.361524, 0.462081, 0.371101, 0.3304, 0.433351, 0.442927, 0.383072, 0.37589, 0.426168, 0.339977, 0.37589, 0.378284, 0.428562, 0.35913, 0.416591, 0.490811, 0.342371, 0.395043, 0.466869, 0.454898, 0.430956, 0.409408, 0.435745, 0.275333, 0.354342, 0.476446, 0.407014, 0.31364, 0.361524, 0.385466, 0.342371, 0.361524, 0.507571, 0.363919, 0.385466, 0.418985, 0.385466, 0.440533, 0.342371, 0.35913, 0.409408, 0.442927, 0.418985, 0.416591, 0.390255, 0.411803, 0.260968, 0.363919, 0.409408, 0.392649, 0.366313, 0.409408, 0.426168, 0.373495, 0.339977, 0.457293, 0.351948, 0.354342, 0.493206, 0.428562, 0.328006, 0.438139, 0.430956, 0.320823, 0.3304, 0.397437, 0.397437, 0.3304, 0.462081, 0.471658, 0.397437, 0.411803, 0.438139, 0.371101, 0.378284, 0.457293, 0.42138, 0.304064, 0.392649, 0.409408, 0.323217, 0.486023, 0.433351, 0.392649, 0.37589, 0.339977, 0.363919, 0.543484, 0.356736, 0.47884, 0.35913, 0.395043, 0.428562, 0.409408, 0.37589, 0.416591, 0.452504, 0.344765, 0.385466, 0.442927, 0.342371, 0.407014, 0.445322, 0.435745, 0.428562, 0.474052, 0.368707, 0.301669, 0.371101, 0.42138, 0.411803, 0.42138, 0.414197, 0.392649, 0.387861, 0.387861, 0.462081, 0.387861, 0.356736, 0.354342, 0.418985, 0.387861, 0.363919, 0.351948, 0.373495, 0.366313, 0.466869, 0.368707, 0.371101, 0.423774, 0.447716, 0.368707, 0.438139, 0.368707, 0.339977, 0.395043, 0.464475, 0.392649, 0.42138, 0.392649, 0.409408, 0.380678, 0.387861, 0.414197, 0.426168, 0.411803, 0.397437, 0.392649, 0.37589, 0.380678, 0.445322, 0.37589, 0.35913, 0.392649, 0.452504, 0.356736, 0.457293, 0.423774, 0.392649, 0.433351, 0.445322, 0.397437, 0.383072, 0.371101, 0.469264, 0.368707, 0.373495, 0.435745, 0.378284, 0.371101, 0.433351, 0.435745, 0.3304, 0.380678, 0.409408, 0.411803, 0.466869, 0.512359, 0.361524, 0.371101, 0.385466, 0.397437, 0.354342, 0.483629, 0.366313, 0.363919, 0.366313, 0.373495, 0.385466, 0.45011, 0.306458, 0.414197, 0.311246, 0.464475, 0.387861, 0.407014, 0.308852, 0.418985, 0.390255, 0.347159, 0.409408, 0.387861, 0.366313, 0.42138, 0.361524, 0.368707, 0.371101, 0.433351, 0.430956, 0.306458, 0.409408, 0.442927, 0.462081, 0.366313, 0.428562, 0.409408, 0.378284, 0.447716, 0.45011, 0.409408, 0.325611, 0.366313, 0.320823, 0.323217, 0.452504, 0.397437, 0.354342, 0.411803, 0.399832, 0.323217, 0.35913, 0.42138, 0.378284, 0.402226, 0.392649, 0.399832, 0.387861, 0.45011, 0.409408, 0.328006, 0.349553, 0.435745, 0.35913, 0.416591]","[-0.54109, -0.536301, -0.509965, -0.497994, -0.483629, -0.586579, -0.543484, -0.521936, -0.545878, -0.514753, -0.550666, -0.4956, -0.514753, -0.526724, -0.54109, -0.567426, -0.56982, -0.507571, -0.486023, -0.52433, -0.531513, -0.567426, -0.588974, -0.433351, -0.521936, -0.512359, -0.486023, -0.572214, -0.555455, -0.526724, -0.47884, -0.505177, -0.548272, -0.574608, -0.545878, -0.507571, -0.574608, -0.574608, -0.512359, -0.490811, -0.560243, -0.574608, -0.562637, -0.567426, -0.47884, -0.555455, -0.567426, -0.52433, -0.56982, -0.533907, -0.548272, -0.52433, -0.505177, -0.514753, -0.54109, -0.514753, -0.557849, -0.548272, -0.471658, -0.533907, -0.514753, -0.555455, -0.536301, -0.533907, -0.517148, -0.54109, -0.529119, -0.490811, -0.507571, -0.562637, -0.507571, -0.536301, -0.509965, -0.574608, -0.507571, -0.507571, -0.490811, -0.474052, -0.54109, -0.52433, -0.512359, -0.519542, -0.550666, -0.536301, -0.466869, -0.533907, -0.521936, -0.521936, -0.521936, -0.517148, -0.493206, -0.512359, -0.47884, -0.562637, -0.509965, -0.474052, -0.548272, -0.550666, -0.596156, -0.593762, -0.512359, -0.550666, -0.533907, -0.517148, -0.521936, -0.593762, -0.529119, -0.533907, -0.54109, -0.526724, -0.567426, -0.545878, -0.514753, -0.543484, -0.567426, -0.557849, -0.514753, -0.526724, -0.562637, -0.574608, -0.545878, -0.531513, -0.562637, -0.581791, -0.548272, -0.512359, -0.584185, -0.4956, -0.483629, -0.538695, -0.519542, -0.581791, -0.4956, -0.579397, -0.521936, -0.54109, -0.605733, -0.502782, -0.514753, -0.536301, -0.505177, -0.512359, -0.545878, -0.519542, -0.538695, -0.54109, -0.481235, -0.536301, -0.586579, -0.488417, -0.555455, -0.560243, -0.545878, -0.483629, -0.538695, -0.548272, -0.59855, -0.553061, -0.490811, -0.514753, -0.538695, -0.493206, -0.507571, -0.526724, -0.56982, -0.545878, -0.557849, -0.536301, -0.526724, -0.562637, -0.529119, -0.574608, -0.454898, -0.526724, -0.529119, -0.512359, -0.52433, -0.531513, -0.543484, -0.526724, -0.550666, -0.548272, -0.562637, -0.567426, -0.593762, -0.52433, -0.517148, -0.486023, -0.574608, -0.507571, -0.591368, -0.52433, -0.497994, -0.56982, -0.481235, -0.474052, -0.474052, -0.574608, -0.466869, -0.533907, -0.536301, -0.514753, -0.505177, -0.500388, -0.56982, -0.543484, -0.464475, -0.531513, -0.536301, -0.531513, -0.521936, -0.526724, -0.538695, -0.519542, -0.52433, -0.586579, -0.52433, -0.596156, -0.555455, -0.481235, -0.507571, -0.521936, -0.591368, -0.529119, -0.538695, -0.533907, -0.502782, -0.514753, -0.507571, -0.529119, -0.536301, -0.548272, -0.519542, -0.531513, -0.519542, -0.550666, -0.521936, -0.519542, -0.548272, -0.555455, -0.517148, -0.562637, -0.567426, -0.507571, -0.555455, -0.529119, -0.529119, -0.517148, -0.555455, -0.52433, -0.493206, -0.488417, -0.567426, -0.517148, -0.543484, -0.565032, -0.574608, -0.521936, -0.507571, -0.543484, -0.553061, -0.553061, -0.526724, -0.548272, -0.529119, -0.529119, -0.557849, -0.517148, -0.574608, -0.52433, -0.462081, -0.562637, -0.517148, -0.548272, -0.507571, -0.557849, -0.502782, -0.509965, -0.486023, -0.574608, -0.514753, -0.526724, -0.608127, -0.550666, -0.565032, -0.550666, -0.536301, -0.47884, -0.52433, -0.47884, -0.557849, -0.4956, -0.488417, -0.507571, -0.545878, -0.47884, -0.553061, -0.488417, -0.555455, -0.529119]","[9.404425, 9.368511, 9.332599, 9.366117, 9.416395, 9.339781, 9.380483, 9.296685, 9.339781, 9.346964, 9.464279, 9.270349, 9.411607, 9.366117, 9.32781, 9.404425, 9.387665, 9.294291, 9.375694, 9.270349, 9.370906, 9.409213, 9.303867, 9.32781, 9.342175, 9.323022, 9.318233, 9.349358, 9.394848, 9.346964, 9.291897, 9.363723, 9.28232, 9.358934, 9.263166, 9.320627, 9.337387, 9.272743, 9.423578, 9.435549, 9.363723, 9.279925, 9.351752, 9.275137, 9.390059, 9.394848, 9.40203, 9.306262, 9.284714, 9.375694, 9.378088, 9.351752, 9.299079, 9.421184, 9.349358, 9.473856, 9.411607, 9.43076, 9.356541, 9.43076, 9.287108, 9.318233, 9.234436, 9.382876, 9.344569, 9.263166, 9.368511, 9.378088, 9.390059, 9.442732, 9.323022, 9.421184, 9.320627, 9.416395, 9.404425, 9.361329, 9.346964, 9.411607, 9.358934, 9.296685, 9.361329, 9.358934, 9.40203, 9.397242, 9.361329, 9.354146, 9.32781, 9.356541, 9.32781, 9.291897, 9.370906, 9.320627, 9.346964, 9.31105, 9.337387, 9.342175, 9.349358, 9.392453, 9.3733, 9.404425, 9.323022, 9.375694, 9.392453, 9.339781, 9.342175, 9.452309, 9.358934, 9.414001, 9.303867, 9.323022, 9.44752, 9.548077, 9.380483, 9.385271, 9.409213, 9.378088, 9.334992, 9.339781, 9.363723, 9.368511, 9.263166, 9.442732, 9.325416, 9.339781, 9.382876, 9.361329, 9.40203, 9.40203, 9.31105, 9.339781, 9.332599, 9.255983, 9.366117, 9.416395, 9.387665, 9.279925, 9.361329, 9.390059, 9.323022, 9.351752, 9.423578, 9.337387, 9.406818, 9.44752, 9.296685, 9.294291, 9.3733, 9.354146, 9.313444, 9.337387, 9.315839, 9.176975, 9.358934, 9.370906, 9.409213, 9.387665, 9.370906, 9.267955, 9.404425, 9.25359, 9.320627, 9.363723, 9.375694, 9.318233, 9.406818, 9.337387, 9.330204, 9.368511, 9.421184, 9.287108, 9.346964, 9.339781, 9.337387, 9.354146, 9.370906, 9.378088, 9.507375, 9.296685, 9.308656, 9.339781, 9.358934, 9.318233, 9.339781, 9.366117, 9.358934, 9.387665, 9.445126, 9.378088, 9.387665, 9.363723, 9.330204, 9.382876, 9.284714, 9.339781, 9.272743, 9.330204, 9.378088, 9.299079, 9.394848, 9.358934, 9.325416, 9.354146, 9.442732, 9.272743, 9.339781, 9.404425, 9.344569, 9.289502, 9.337387, 9.346964, 9.361329, 9.440337, 9.440337, 9.375694, 9.41879, 9.294291, 9.320627, 9.296685, 9.382876, 9.334992, 9.358934, 9.315839, 9.361329, 9.342175, 9.337387, 9.358934, 9.382876, 9.356541, 9.356541, 9.344569, 9.291897, 9.378088, 9.339781, 9.380483, 9.490616, 9.318233, 9.414001, 9.404425, 9.325416, 9.363723, 9.356541, 9.378088, 9.299079, 9.294291, 9.284714, 9.356541, 9.339781, 9.361329, 9.344569, 9.354146, 9.346964, 9.313444, 9.404425, 9.3733, 9.32781, 9.349358, 9.320627, 9.330204, 9.306262, 9.387665, 9.375694, 9.378088, 9.313444, 9.303867, 9.382876, 9.40203, 9.385271, 9.323022, 9.308656, 9.425972, 9.375694, 9.425972, 9.344569, 9.433155, 9.44752, 9.409213, 9.428367, 9.428367, 9.440337, 9.416395, 9.368511, 9.349358, 9.275137, 9.334992, 9.366117, 9.366117, 9.313444, 9.40203, 9.315839, 9.394848, 9.363723, 9.356541, 9.382876, 9.416395, 9.361329, 9.332599, 9.313444, 9.378088, 9.411607, 9.397242]","[-0.007727, -0.008527, -0.008793, -0.007461, -0.00826, -0.006129, -0.006928, -0.006395, -0.009326, -0.007461, -0.00906, -0.007194, -0.006662, -0.007461, -0.006129, -0.00826, -0.009859, -0.003464, -0.005329, -0.006395, -0.007194, -0.009859, -0.006395, -0.005063, -0.007994, -0.007194, -0.00906, -0.007727, -0.006928, -0.008527, -0.005329, -0.00826, -0.006129, -0.004796, -0.008527, -0.007194, -0.006928, -0.007194, -0.006928, -0.007461, -0.007994, -0.007727, -0.009326, -0.007994, -0.006395, -0.009593, -0.007727, -0.006928, -0.006662, -0.007994, -0.008793, -0.007461, -0.005063, -0.007461, -0.007727, -0.006662, -0.006129, -0.00453, -0.00826, -0.007194, -0.006395, -0.005329, -0.007994, -0.00826, -0.007461, -0.008527, -0.006395, -0.007461, -0.004796, -0.007461, -0.007994, -0.005329, -0.009593, -0.005596, -0.005329, -0.006129, -0.009326, -0.007994, -0.006395, -0.009593, -0.007194, -0.005862, -0.008527, -0.011458, -0.006129, -0.006928, -0.008527, -0.006928, -0.008793, -0.00906, -0.005862, -0.007727, -0.005329, -0.006662, -0.006662, -0.008527, -0.00906, -0.007994, -0.007727, -0.007194, -0.006395, -0.009859, -0.004796, -0.006395, -0.006928, -0.009326, -0.006129, -0.006395, -0.007194, -0.007727, -0.007461, -0.00826, -0.005862, -0.010392, -0.007994, -0.009326, -0.008527, -0.00826, -0.00826, -0.005596, -0.007194, -0.007194, -0.007194, -0.008527, -0.008793, -0.007194, -0.005329, -0.007727, -0.006129, -0.007194, -0.005862, -0.007194, -0.007994, -0.006662, -0.01279, -0.007194, -0.00826, -0.007994, -0.005862, -0.007994, -0.004796, -0.009593, -0.006928, -0.007727, -0.009593, -0.006662, -0.006662, -0.008527, -0.004796, -0.007727, -0.008527, -0.006662, -0.007994, -0.007194, -0.007727, -0.007727, -0.008527, -0.00826, -0.007727, -0.005596, -0.007994, -0.006928, -0.007994, -0.006662, -0.006129, -0.007727, -0.006662, -0.006928, -0.008527, -0.005329, -0.004796, -0.010925, -0.00826, -0.008527, -0.006928, -0.010126, -0.010126, -0.007727, -0.007461, -0.004796, -0.007727, -0.008527, -0.008527, -0.009593, -0.007727, -0.006928, -0.009859, -0.005596, -0.00906, -0.006662, -0.006129, -0.009593, -0.009593, -0.008527, -0.008793, -0.00906, -0.007461, -0.006928, -0.006662, -0.006395, -0.009326, -0.005329, -0.006662, -0.006928, -0.007194, -0.009859, -0.005862, -0.006129, -0.009593, -0.005063, -0.007994, -0.006928, -0.006928, -0.00906, -0.007727, -0.006395, -0.008793, -0.005329, -0.008793, -0.007994, -0.008793, -0.009859, -0.007727, -0.006662, -0.009593, -0.007461, -0.007194, -0.005862, -0.006928, -0.009593, -0.006662, -0.008527, -0.009593, -0.007194, -0.006928, -0.010126, -0.006395, -0.00826, -0.006662, -0.007994, -0.008793, -0.007727, -0.004796, -0.007727, -0.00826, -0.007727, -0.00826, -0.009326, -0.007727, -0.006395, -0.010126, -0.00906, -0.00906, -0.005596, -0.007994, -0.004263, -0.006662, -0.011191, -0.008527, -0.010925, -0.007461, -0.008527, -0.008793, -0.008527, -0.008793, -0.012524, -0.010126, -0.00826, -0.00826, -0.002931, -0.007194, -0.009593, -0.006395, -0.007194, -0.006662, -0.005329, -0.009326, -0.010126, -0.007461, -0.007194, -0.005063, -0.008793, -0.006395, -0.007727, -0.008793, -0.010126, -0.007994, -0.006928, -0.005596, -0.006928, -0.006928, -0.007727, -0.009593, -0.00826, -0.005862, -0.009326, -0.007461, -0.00373, -0.007994, -0.006395]","[-0.045299, -0.040236, -0.044499, -0.042101, -0.044766, -0.040502, -0.042101, -0.043966, -0.042368, -0.041835, -0.041035, -0.044766, -0.040502, -0.041835, -0.041302, -0.042101, -0.040769, -0.043167, -0.041035, -0.0437, -0.042368, -0.044766, -0.042368, -0.041835, -0.041035, -0.043167, -0.042634, -0.043167, -0.042101, -0.041302, -0.043966, -0.042368, -0.042368, -0.044766, -0.039703, -0.043167, -0.042101, -0.041302, -0.042368, -0.042634, -0.0429, -0.0429, -0.043433, -0.038904, -0.0429, -0.042101, -0.041835, -0.041568, -0.0429, -0.0429, -0.041302, -0.040769, -0.044499, -0.0429, -0.042368, -0.044766, -0.044499, -0.041835, -0.041302, -0.041835, -0.046631, -0.0429, -0.041302, -0.043167, -0.043167, -0.041835, -0.042101, -0.043167, -0.039969, -0.038371, -0.042101, -0.043167, -0.043167, -0.041835, -0.042634, -0.043167, -0.042634, -0.043966, -0.041302, -0.043167, -0.042368, -0.042368, -0.041568, -0.043167, -0.0437, -0.0429, -0.039436, -0.043966, -0.043167, -0.040769, -0.0437, -0.044766, -0.043167, -0.041835, -0.042634, -0.042368, -0.042368, -0.043167, -0.0429, -0.041568, -0.041568, -0.041568, -0.045299, -0.040769, -0.042634, -0.042634, -0.039969, -0.0437, -0.0429, -0.0429, -0.042368, -0.042368, -0.044233, -0.043433, -0.043433, -0.042101, -0.0429, -0.042634, -0.042368, -0.042101, -0.043966, -0.040502, -0.0437, -0.042634, -0.0429, -0.044233, -0.042368, -0.041835, -0.042368, -0.041568, -0.043433, -0.0437, -0.043433, -0.03917, -0.041302, -0.044499, -0.0429, -0.042634, -0.044233, -0.044499, -0.041302, -0.041568, -0.040236, -0.041835, -0.0437, -0.042634, -0.041302, -0.041568, -0.041035, -0.042368, -0.039703, -0.0429, -0.042101, -0.043433, -0.042634, -0.044499, -0.042368, -0.041035, -0.043966, -0.041568, -0.041302, -0.041835, -0.040769, -0.044233, -0.042368, -0.042634, -0.042101, -0.041302, -0.044499, -0.042634, -0.042634, -0.043167, -0.041302, -0.043167, -0.041035, -0.041568, -0.0429, -0.045299, -0.044766, -0.041568, -0.040502, -0.042101, -0.042634, -0.039703, -0.041035, -0.0429, -0.042368, -0.042634, -0.042101, -0.045032, -0.044766, -0.041302, -0.040236, -0.0437, -0.042101, -0.045032, -0.041568, -0.044766, -0.044499, -0.041568, -0.043966, -0.043433, -0.042634, -0.045032, -0.041302, -0.041035, -0.043167, -0.041302, -0.044233, -0.0429, -0.040769, -0.040502, -0.040502, -0.042634, -0.043167, -0.040769, -0.042368, -0.042634, -0.0429, -0.042101, -0.043167, -0.0437, -0.038904, -0.043167, -0.041302, -0.0437, -0.042634, -0.0437, -0.043433, -0.042101, -0.041302, -0.039436, -0.042101, -0.043167, -0.040502, -0.044766, -0.042368, -0.043433, -0.042634, -0.042368, -0.043167, -0.040502, -0.045299, -0.039436, -0.045565, -0.044233, -0.042101, -0.041568, -0.045565, -0.041568, -0.044233, -0.043167, -0.041302, -0.040236, -0.040769, -0.042101, -0.042634, -0.043966, -0.0437, -0.041568, -0.039436, -0.041568, -0.041835, -0.043966, -0.042634, -0.042634, -0.043167, -0.041835, -0.039703, -0.041568, -0.041035, -0.043966, -0.041302, -0.042368, -0.042368, -0.042368, -0.042368, -0.0437, -0.042368, -0.039436, -0.041302, -0.0437, -0.044233, -0.043167, -0.042368, -0.044233, -0.040236, -0.0437, -0.0429, -0.0437, -0.043433, -0.044233, -0.041835, -0.039969, -0.041835, -0.043167, -0.043167, -0.041302, -0.042368, -0.043966]","[-0.020518, -0.020251, -0.020784, -0.020251, -0.018119, -0.019452, -0.016521, -0.020251, -0.017853, -0.017853, -0.019185, -0.01732, -0.017853, -0.018386, -0.02185, -0.022649, -0.019185, -0.021583, -0.019718, -0.020251, -0.017853, -0.018119, -0.019452, -0.019452, -0.018652, -0.018119, -0.020518, -0.018919, -0.018386, -0.020251, -0.021051, -0.021051, -0.018919, -0.017587, -0.020251, -0.018919, -0.017853, -0.019985, -0.018119, -0.019185, -0.019452, -0.017587, -0.019452, -0.019452, -0.017587, -0.018386, -0.017853, -0.020251, -0.018386, -0.019985, -0.020251, -0.018919, -0.019185, -0.018919, -0.022116, -0.018119, -0.016521, -0.018386, -0.018386, -0.018652, -0.018919, -0.021317, -0.01732, -0.018119, -0.02185, -0.018652, -0.021051, -0.020251, -0.019452, -0.019718, -0.018386, -0.01732, -0.018386, -0.018652, -0.019185, -0.021051, -0.019718, -0.018386, -0.019452, -0.018386, -0.021051, -0.019718, -0.019718, -0.018919, -0.018652, -0.020518, -0.019985, -0.020251, -0.020518, -0.018919, -0.017853, -0.018919, -0.018652, -0.020518, -0.018386, -0.019452, -0.018919, -0.018119, -0.020518, -0.018919, -0.020784, -0.019185, -0.018119, -0.019452, -0.020784, -0.018919, -0.019452, -0.018386, -0.018386, -0.016787, -0.020251, -0.016787, -0.017853, -0.020251, -0.018119, -0.017054, -0.020251, -0.020784, -0.019185, -0.018919, -0.019452, -0.018919, -0.019718, -0.019985, -0.018386, -0.019185, -0.019718, -0.017587, -0.019985, -0.019985, -0.020784, -0.019985, -0.018386, -0.021051, -0.019185, -0.020518, -0.015988, -0.019718, -0.017587, -0.01732, -0.021051, -0.017587, -0.01732, -0.018919, -0.018652, -0.020784, -0.018919, -0.017853, -0.019452, -0.018119, -0.017587, -0.016521, -0.018919, -0.018919, -0.020251, -0.020518, -0.019718, -0.020251, -0.015988, -0.022383, -0.020784, -0.020518, -0.019452, -0.020251, -0.017853, -0.018119, -0.017853, -0.020518, -0.019985, -0.018119, -0.018919, -0.019452, -0.021051, -0.019185, -0.020251, -0.020251, -0.016787, -0.022116, -0.020784, -0.017853, -0.018652, -0.020518, -0.018919, -0.017853, -0.018919, -0.020251, -0.018652, -0.017587, -0.021583, -0.020251, -0.019452, -0.021317, -0.019985, -0.022116, -0.018652, -0.015721, -0.018119, -0.021051, -0.019985, -0.019718, -0.017054, -0.018652, -0.021317, -0.018919, -0.020784, -0.018386, -0.020251, -0.019718, -0.020251, -0.021317, -0.020784, -0.019718, -0.019718, -0.018652, -0.017587, -0.018919, -0.018119, -0.019718, -0.019452, -0.021317, -0.018919, -0.020251, -0.016787, -0.018652, -0.019185, -0.017054, -0.020518, -0.021051, -0.020784, -0.018652, -0.022649, -0.020251, -0.018652, -0.018652, -0.018652, -0.018386, -0.020518, -0.020784, -0.019185, -0.020251, -0.018919, -0.017853, -0.017587, -0.019718, -0.017853, -0.018652, -0.018652, -0.020784, -0.018386, -0.019718, -0.018386, -0.017853, -0.019718, -0.022116, -0.021583, -0.019985, -0.022916, -0.020251, -0.019718, -0.01732, -0.019452, -0.019452, -0.023715, -0.019985, -0.017853, -0.021051, -0.021317, -0.018919, -0.020518, -0.019985, -0.019718, -0.018386, -0.018919, -0.018386, -0.020518, -0.019185, -0.019718, -0.021317, -0.020518, -0.018119, -0.020251, -0.022116, -0.020251, -0.022916, -0.019985, -0.017853, -0.02185, -0.020518, -0.019452, -0.019985, -0.020784, -0.019985, -0.017853, -0.018119, -0.021051, -0.021051, -0.020518, -0.021051, -0.017853, -0.02185]"
2153,"[0.435745, 0.438139, 0.3304, 0.442927, 0.3304, 0.440533, 0.409408, 0.385466, 0.428562, 0.40462, 0.347159, 0.416591, 0.466869, 0.378284, 0.363919, 0.447716, 0.35913, 0.292093, 0.411803, 0.430956, 0.287304, 0.351948, 0.392649, 0.445322, 0.392649, 0.409408, 0.402226, 0.368707, 0.430956, 0.42138, 0.351948, 0.373495, 0.380678, 0.320823, 0.390255, 0.454898, 0.433351, 0.308852, 0.411803, 0.438139, 0.387861, 0.397437, 0.469264, 0.390255, 0.395043, 0.433351, 0.40462, 0.339977, 0.383072, 0.402226, 0.45011, 0.380678, 0.433351, 0.366313, 0.356736, 0.37589, 0.440533, 0.378284, 0.385466, 0.378284, 0.464475, 0.423774, 0.414197, 0.423774, 0.311246, 0.373495, 0.399832, 0.402226, 0.35913, 0.416591, 0.426168, 0.373495, 0.378284, 0.493206, 0.395043, 0.337582, 0.411803, 0.323217, 0.438139, 0.354342, 0.402226, 0.337582, 0.35913, 0.37589, 0.426168, 0.363919, 0.387861, 0.397437, 0.354342, 0.368707, 0.37589, 0.433351, 0.294487, 0.392649, 0.445322, 0.361524, 0.411803, 0.37589, 0.411803, 0.361524, 0.471658, 0.368707, 0.328006, 0.37589, 0.351948, 0.344765, 0.423774, 0.392649, 0.311246, 0.40462, 0.368707, 0.380678, 0.383072, 0.378284, 0.414197, 0.363919, 0.426168, 0.40462, 0.335188, 0.392649, 0.438139, 0.397437, 0.414197, 0.42138, 0.445322, 0.328006, 0.402226, 0.474052, 0.347159, 0.354342, 0.409408, 0.435745, 0.411803, 0.390255, 0.447716, 0.387861, 0.339977, 0.397437, 0.533907, 0.316035, 0.385466, 0.438139, 0.407014, 0.371101, 0.457293, 0.342371, 0.35913, 0.40462, 0.399832, 0.373495, 0.351948, 0.42138, 0.399832, 0.409408, 0.383072, 0.337582, 0.332794, 0.363919, 0.37589, 0.289698, 0.344765, 0.40462, 0.335188, 0.325611, 0.378284, 0.316035, 0.457293, 0.366313, 0.351948, 0.351948, 0.277727, 0.418985, 0.304064, 0.356736, 0.416591, 0.426168, 0.397437, 0.445322, 0.428562, 0.306458, 0.416591, 0.390255, 0.37589, 0.442927, 0.430956, 0.462081, 0.409408, 0.37589, 0.423774, 0.351948, 0.37589, 0.428562, 0.40462, 0.407014, 0.474052, 0.416591, 0.368707, 0.335188, 0.380678, 0.402226, 0.407014, 0.40462, 0.387861, 0.320823, 0.342371, 0.423774, 0.414197, 0.373495, 0.387861, 0.347159, 0.37589, 0.40462, 0.356736, 0.397437, 0.37589, 0.399832, 0.351948, 0.304064, 0.371101, 0.342371, 0.318429, 0.40462, 0.416591, 0.342371, 0.299275, 0.488417, 0.37589, 0.349553, 0.392649, 0.385466, 0.438139, 0.395043, 0.42138, 0.390255, 0.368707, 0.42138, 0.445322, 0.37589, 0.366313, 0.335188, 0.301669, 0.356736, 0.423774, 0.428562, 0.390255, 0.430956, 0.442927, 0.342371, 0.323217, 0.433351, 0.339977, 0.383072, 0.438139, 0.402226, 0.347159, 0.392649, 0.462081, 0.347159, 0.409408, 0.390255, 0.35913, 0.351948, 0.466869, 0.45011, 0.301669, 0.40462, 0.347159, 0.387861, 0.409408, 0.430956, 0.433351, 0.354342, 0.430956, 0.416591, 0.368707, 0.387861, 0.430956, 0.402226, 0.296881, 0.368707, 0.416591, 0.3304, 0.366313, 0.37589, 0.416591, 0.411803, 0.409408, 0.366313, 0.275333, 0.402226, 0.392649, 0.399832, 0.35913, 0.464475, 0.335188, 0.344765, 0.411803, 0.42138, 0.342371, 0.397437]","[-0.586579, -0.4956, -0.54109, -0.543484, -0.56982, -0.493206, -0.536301, -0.600945, -0.555455, -0.505177, -0.505177, -0.476446, -0.54109, -0.555455, -0.543484, -0.488417, -0.509965, -0.483629, -0.538695, -0.517148, -0.531513, -0.512359, -0.490811, -0.562637, -0.4956, -0.543484, -0.536301, -0.533907, -0.483629, -0.565032, -0.521936, -0.529119, -0.545878, -0.579397, -0.474052, -0.483629, -0.533907, -0.543484, -0.486023, -0.517148, -0.577003, -0.519542, -0.557849, -0.553061, -0.538695, -0.502782, -0.555455, -0.59855, -0.562637, -0.481235, -0.555455, -0.529119, -0.538695, -0.483629, -0.567426, -0.533907, -0.519542, -0.526724, -0.538695, -0.536301, -0.488417, -0.550666, -0.490811, -0.553061, -0.567426, -0.553061, -0.500388, -0.47884, -0.622492, -0.553061, -0.466869, -0.512359, -0.538695, -0.531513, -0.509965, -0.531513, -0.555455, -0.526724, -0.545878, -0.56982, -0.514753, -0.526724, -0.526724, -0.4956, -0.555455, -0.555455, -0.481235, -0.565032, -0.605733, -0.567426, -0.565032, -0.553061, -0.545878, -0.502782, -0.605733, -0.574608, -0.505177, -0.538695, -0.538695, -0.548272, -0.47884, -0.59855, -0.538695, -0.545878, -0.572214, -0.560243, -0.497994, -0.526724, -0.488417, -0.584185, -0.4956, -0.543484, -0.52433, -0.548272, -0.557849, -0.555455, -0.538695, -0.500388, -0.605733, -0.562637, -0.531513, -0.560243, -0.586579, -0.548272, -0.543484, -0.52433, -0.567426, -0.505177, -0.565032, -0.521936, -0.562637, -0.526724, -0.560243, -0.47884, -0.505177, -0.548272, -0.47884, -0.574608, -0.557849, -0.588974, -0.526724, -0.605733, -0.514753, -0.545878, -0.562637, -0.596156, -0.512359, -0.529119, -0.538695, -0.560243, -0.588974, -0.52433, -0.512359, -0.577003, -0.517148, -0.567426, -0.538695, -0.565032, -0.562637, -0.497994, -0.538695, -0.56982, -0.548272, -0.505177, -0.545878, -0.519542, -0.531513, -0.543484, -0.481235, -0.553061, -0.54109, -0.529119, -0.486023, -0.54109, -0.538695, -0.447716, -0.517148, -0.514753, -0.550666, -0.557849, -0.565032, -0.519542, -0.574608, -0.476446, -0.4956, -0.509965, -0.52433, -0.555455, -0.565032, -0.514753, -0.603339, -0.543484, -0.514753, -0.548272, -0.514753, -0.538695, -0.550666, -0.497994, -0.4956, -0.533907, -0.557849, -0.565032, -0.52433, -0.502782, -0.565032, -0.588974, -0.497994, -0.536301, -0.526724, -0.493206, -0.529119, -0.557849, -0.517148, -0.562637, -0.514753, -0.567426, -0.543484, -0.545878, -0.502782, -0.572214, -0.533907, -0.4956, -0.519542, -0.469264, -0.56982, -0.490811, -0.529119, -0.526724, -0.497994, -0.466869, -0.608127, -0.600945, -0.521936, -0.557849, -0.538695, -0.555455, -0.553061, -0.514753, -0.502782, -0.509965, -0.4956, -0.52433, -0.529119, -0.560243, -0.529119, -0.531513, -0.584185, -0.512359, -0.550666, -0.545878, -0.562637, -0.497994, -0.56982, -0.550666, -0.567426, -0.531513, -0.474052, -0.529119, -0.526724, -0.486023, -0.529119, -0.562637, -0.543484, -0.486023, -0.56982, -0.548272, -0.517148, -0.514753, -0.52433, -0.505177, -0.555455, -0.507571, -0.567426, -0.500388, -0.483629, -0.543484, -0.565032, -0.550666, -0.550666, -0.507571, -0.538695, -0.584185, -0.507571, -0.560243, -0.61531, -0.538695, -0.555455, -0.529119, -0.572214, -0.517148, -0.529119, -0.577003, -0.509965, -0.538695, -0.505177, -0.548272, -0.497994, -0.526724, -0.533907, -0.54109]","[9.461885, 9.28232, 9.512163, 9.330204, 9.41879, 9.382876, 9.375694, 9.454702, 9.31105, 9.387665, 9.382876, 9.440337, 9.325416, 9.339781, 9.28232, 9.445126, 9.31105, 9.337387, 9.366117, 9.406818, 9.313444, 9.387665, 9.346964, 9.306262, 9.366117, 9.394848, 9.349358, 9.330204, 9.425972, 9.414001, 9.323022, 9.40203, 9.409213, 9.241618, 9.299079, 9.320627, 9.366117, 9.337387, 9.416395, 9.378088, 9.421184, 9.442732, 9.380483, 9.356541, 9.399636, 9.41879, 9.354146, 9.318233, 9.344569, 9.409213, 9.378088, 9.258378, 9.390059, 9.382876, 9.421184, 9.334992, 9.414001, 9.32781, 9.320627, 9.270349, 9.368511, 9.349358, 9.358934, 9.330204, 9.366117, 9.409213, 9.390059, 9.289502, 9.342175, 9.363723, 9.346964, 9.346964, 9.363723, 9.346964, 9.416395, 9.416395, 9.332599, 9.303867, 9.299079, 9.358934, 9.366117, 9.323022, 9.337387, 9.390059, 9.3733, 9.318233, 9.291897, 9.339781, 9.263166, 9.421184, 9.284714, 9.366117, 9.425972, 9.325416, 9.325416, 9.31105, 9.390059, 9.184157, 9.349358, 9.337387, 9.390059, 9.346964, 9.421184, 9.31105, 9.296685, 9.334992, 9.334992, 9.387665, 9.349358, 9.330204, 9.366117, 9.416395, 9.351752, 9.339781, 9.346964, 9.332599, 9.246407, 9.346964, 9.394848, 9.361329, 9.361329, 9.392453, 9.349358, 9.349358, 9.315839, 9.378088, 9.361329, 9.296685, 9.380483, 9.3733, 9.41879, 9.445126, 9.358934, 9.351752, 9.428367, 9.26556, 9.409213, 9.411607, 9.31105, 9.332599, 9.363723, 9.3733, 9.330204, 9.449914, 9.368511, 9.459491, 9.354146, 9.294291, 9.313444, 9.428367, 9.421184, 9.342175, 9.323022, 9.32781, 9.375694, 9.284714, 9.368511, 9.28232, 9.361329, 9.382876, 9.394848, 9.387665, 9.3733, 9.425972, 9.351752, 9.3733, 9.356541, 9.303867, 9.344569, 9.471462, 9.344569, 9.392453, 9.370906, 9.390059, 9.346964, 9.397242, 9.375694, 9.356541, 9.423578, 9.392453, 9.399636, 9.303867, 9.272743, 9.308656, 9.296685, 9.342175, 9.291897, 9.363723, 9.40203, 9.380483, 9.356541, 9.303867, 9.358934, 9.323022, 9.390059, 9.406818, 9.330204, 9.308656, 9.380483, 9.358934, 9.346964, 9.337387, 9.294291, 9.387665, 9.294291, 9.31105, 9.325416, 9.41879, 9.296685, 9.361329, 9.399636, 9.394848, 9.425972, 9.442732, 9.382876, 9.334992, 9.382876, 9.330204, 9.406818, 9.363723, 9.428367, 9.239224, 9.349358, 9.358934, 9.361329, 9.318233, 9.349358, 9.411607, 9.392453, 9.378088, 9.315839, 9.25359, 9.303867, 9.342175, 9.361329, 9.325416, 9.291897, 9.289502, 9.303867, 9.387665, 9.435549, 9.31105, 9.210494, 9.342175, 9.40203, 9.284714, 9.308656, 9.425972, 9.440337, 9.380483, 9.406818, 9.473856, 9.411607, 9.31105, 9.31105, 9.394848, 9.380483, 9.394848, 9.315839, 9.330204, 9.368511, 9.337387, 9.339781, 9.318233, 9.296685, 9.356541, 9.332599, 9.318233, 9.370906, 9.334992, 9.299079, 9.28232, 9.287108, 9.260772, 9.40203, 9.258378, 9.325416, 9.404425, 9.428367, 9.342175, 9.318233, 9.339781, 9.397242, 9.31105, 9.313444, 9.390059, 9.289502, 9.399636, 9.394848, 9.428367, 9.294291, 9.394848, 9.397242, 9.313444, 9.346964, 9.385271, 9.291897, 9.330204, 9.40203, 9.344569]","[-0.005329, -0.008793, -0.010392, -0.00826, -0.005862, -0.006395, -0.007994, -0.007994, -0.006662, -0.009859, -0.006395, -0.006662, -0.008527, -0.004796, -0.006395, -0.00826, -0.00906, -0.005063, -0.006928, -0.008527, -0.008793, -0.007194, -0.005862, -0.009859, -0.009593, -0.009859, -0.007461, -0.007461, -0.010126, -0.008793, -0.005596, -0.008527, -0.006662, -0.00906, -0.009593, -0.010392, -0.005862, -0.008527, -0.006129, -0.007727, -0.007994, -0.008793, -0.00826, -0.006662, -0.007727, -0.010126, -0.006662, -0.007194, -0.009326, -0.006395, -0.009326, -0.006928, -0.005329, -0.007461, -0.006662, -0.007461, -0.007994, -0.007994, -0.00906, -0.009593, -0.005596, -0.008793, -0.005063, -0.007994, -0.010658, -0.007461, -0.007194, -0.005329, -0.006129, -0.007994, -0.005862, -0.004796, -0.009593, -0.00826, -0.005862, -0.007994, -0.006129, -0.00826, -0.008793, -0.007727, -0.006129, -0.007461, -0.006129, -0.007194, -0.006928, -0.007461, -0.00906, -0.007994, -0.005862, -0.006662, -0.006395, -0.008793, -0.007194, -0.009326, -0.007461, -0.003997, -0.007994, -0.006928, -0.006928, -0.006662, -0.007727, -0.006662, -0.00453, -0.00826, -0.009859, -0.006129, -0.006129, -0.007994, -0.007994, -0.005862, -0.006129, -0.008793, -0.00906, -0.005862, -0.00826, -0.00906, -0.007194, -0.006662, -0.006129, -0.00826, -0.009326, -0.006928, -0.006129, -0.006928, -0.007727, -0.007461, -0.006129, -0.006928, -0.00826, -0.008527, -0.006129, -0.006395, -0.007727, -0.007461, -0.00906, -0.010126, -0.005862, -0.008793, -0.005063, -0.007727, -0.005596, -0.007461, -0.00906, -0.006395, -0.006662, -0.005862, -0.005862, -0.006662, -0.005063, -0.005329, -0.00826, -0.00906, -0.005862, -0.007994, -0.005596, -0.007727, -0.008527, -0.007994, -0.008527, -0.005596, -0.006928, -0.006129, -0.006662, -0.007461, -0.007727, -0.007461, -0.006662, -0.007727, -0.007994, -0.009326, -0.008527, -0.007194, -0.006662, -0.007994, -0.008793, -0.008793, -0.009326, -0.00826, -0.006928, -0.008793, -0.007461, -0.006395, -0.007727, -0.00453, -0.008527, -0.007727, -0.006129, -0.007994, -0.010392, -0.005596, -0.006129, -0.008527, -0.006395, -0.006662, -0.007194, -0.005862, -0.007194, -0.006662, -0.008527, -0.009326, -0.00906, -0.010126, -0.007994, -0.007461, -0.006662, -0.00826, -0.006129, -0.006395, -0.006129, -0.006129, -0.00906, -0.009326, -0.00826, -0.007994, -0.005063, -0.005862, -0.008793, -0.007194, -0.00826, -0.007461, -0.005596, -0.007461, -0.007194, -0.006662, -0.009326, -0.006395, -0.005862, -0.006928, -0.006928, -0.003997, -0.007727, -0.008793, -0.007461, -0.007194, -0.00826, -0.009326, -0.009593, -0.006928, -0.006662, -0.005862, -0.008793, -0.005862, -0.007727, -0.007994, -0.006662, -0.007194, -0.007461, -0.006928, -0.008527, -0.007194, -0.007994, -0.007194, -0.008793, -0.007461, -0.010925, -0.007994, -0.006662, -0.007727, -0.007461, -0.00826, -0.006129, -0.009593, -0.006395, -0.007461, -0.006395, -0.008527, -0.00826, -0.008527, -0.007994, -0.008527, -0.007194, -0.007194, -0.012257, -0.004796, -0.00826, -0.007994, -0.004796, -0.00906, -0.008793, -0.005596, -0.013057, -0.00906, -0.005063, -0.008527, -0.005596, -0.006662, -0.009326, -0.005596, -0.010658, -0.007994, -0.008527, -0.007994, -0.00906, -0.006129, -0.00826, -0.005329, -0.007461, -0.00906, -0.006395, -0.006662]","[-0.046098, -0.041835, -0.0437, -0.0437, -0.039436, -0.043167, -0.045299, -0.041568, -0.0429, -0.039436, -0.043433, -0.040236, -0.038371, -0.042368, -0.041302, -0.044499, -0.044233, -0.041835, -0.042634, -0.041835, -0.044499, -0.044499, -0.041035, -0.042101, -0.039969, -0.042101, -0.040769, -0.042634, -0.042368, -0.043433, -0.043167, -0.042634, -0.043167, -0.041835, -0.042634, -0.043966, -0.044766, -0.041835, -0.041568, -0.042368, -0.044766, -0.042368, -0.042101, -0.040236, -0.041835, -0.045299, -0.040502, -0.043433, -0.040769, -0.042634, -0.043167, -0.041035, -0.042634, -0.043167, -0.043433, -0.0429, -0.041035, -0.043966, -0.041035, -0.042368, -0.040769, -0.041035, -0.0437, -0.042634, -0.043966, -0.041035, -0.0429, -0.041035, -0.042368, -0.041302, -0.041835, -0.045565, -0.042634, -0.041035, -0.044766, -0.043433, -0.041835, -0.044499, -0.044233, -0.0437, -0.041035, -0.042368, -0.0429, -0.0429, -0.041835, -0.040236, -0.044233, -0.043433, -0.041302, -0.040236, -0.044766, -0.0429, -0.041835, -0.041568, -0.041302, -0.041568, -0.042368, -0.040769, -0.044766, -0.044233, -0.041835, -0.042368, -0.043966, -0.042101, -0.03917, -0.041835, -0.043966, -0.039969, -0.045565, -0.0429, -0.044766, -0.041568, -0.041302, -0.041568, -0.043167, -0.043433, -0.042101, -0.041568, -0.042101, -0.042368, -0.0429, -0.043167, -0.042634, -0.044233, -0.042368, -0.0429, -0.042101, -0.045032, -0.042368, -0.041035, -0.039703, -0.042634, -0.042368, -0.043167, -0.040502, -0.041568, -0.043966, -0.044499, -0.042634, -0.045299, -0.040236, -0.042634, -0.041302, -0.044233, -0.0429, -0.041835, -0.041035, -0.041035, -0.043433, -0.043167, -0.042368, -0.043433, -0.041302, -0.041568, -0.044499, -0.041302, -0.044233, -0.043433, -0.042101, -0.041035, -0.043966, -0.043966, -0.041302, -0.043433, -0.0429, -0.0437, -0.043433, -0.0437, -0.043433, -0.0429, -0.041568, -0.042634, -0.038904, -0.0437, -0.041302, -0.0437, -0.040769, -0.042368, -0.041568, -0.039436, -0.0429, -0.041835, -0.0429, -0.041835, -0.042634, -0.042368, -0.041302, -0.041568, -0.040236, -0.041835, -0.043433, -0.041835, -0.040769, -0.038637, -0.043433, -0.041302, -0.041302, -0.040769, -0.040236, -0.040502, -0.041302, -0.038904, -0.042101, -0.041035, -0.042101, -0.042368, -0.044233, -0.041302, -0.043167, -0.041835, -0.041835, -0.039703, -0.041835, -0.0429, -0.0429, -0.043167, -0.039436, -0.042368, -0.044233, -0.0437, -0.045032, -0.040502, -0.040236, -0.045032, -0.043167, -0.042634, -0.042634, -0.040502, -0.042634, -0.0437, -0.041035, -0.0437, -0.041302, -0.042101, -0.044499, -0.0429, -0.045032, -0.039969, -0.043433, -0.044233, -0.045565, -0.042368, -0.041035, -0.045299, -0.040502, -0.040769, -0.045032, -0.042634, -0.043433, -0.044233, -0.039436, -0.041302, -0.041568, -0.0437, -0.042101, -0.042101, -0.042634, -0.043167, -0.047164, -0.043433, -0.041568, -0.042634, -0.0429, -0.041302, -0.042634, -0.044499, -0.041568, -0.042368, -0.0437, -0.041835, -0.041835, -0.042101, -0.038637, -0.043966, -0.044499, -0.041302, -0.042634, -0.041835, -0.042368, -0.043433, -0.0429, -0.044499, -0.042368, -0.0429, -0.043433, -0.0429, -0.038637, -0.0429, -0.045565, -0.042634, -0.042634, -0.041035, -0.042368, -0.041035, -0.041302, -0.043966, -0.041568, -0.043966, -0.044499, -0.040236]","[-0.021051, -0.018919, -0.018919, -0.018652, -0.018919, -0.019985, -0.020784, -0.021317, -0.017853, -0.021051, -0.019185, -0.017054, -0.016254, -0.018919, -0.017587, -0.019718, -0.019718, -0.022383, -0.018919, -0.019718, -0.020251, -0.02185, -0.018119, -0.018119, -0.021051, -0.018119, -0.020251, -0.019985, -0.021317, -0.019452, -0.019452, -0.021583, -0.019452, -0.019718, -0.018386, -0.019985, -0.019452, -0.01732, -0.024515, -0.021317, -0.019185, -0.019185, -0.019718, -0.018919, -0.016787, -0.021583, -0.022383, -0.021051, -0.017853, -0.018652, -0.018119, -0.019185, -0.021051, -0.021317, -0.020518, -0.019718, -0.018119, -0.019718, -0.019718, -0.020518, -0.017587, -0.016521, -0.020518, -0.018119, -0.018919, -0.021051, -0.017587, -0.020518, -0.016254, -0.018386, -0.018652, -0.01732, -0.021051, -0.019718, -0.023182, -0.018652, -0.021051, -0.019185, -0.016521, -0.022116, -0.020251, -0.016521, -0.020518, -0.020251, -0.018919, -0.016521, -0.017853, -0.018919, -0.020251, -0.018919, -0.021583, -0.020518, -0.018652, -0.020518, -0.023182, -0.018386, -0.019185, -0.022649, -0.016254, -0.016254, -0.021317, -0.016787, -0.015988, -0.01732, -0.020784, -0.020784, -0.018919, -0.018386, -0.017587, -0.019185, -0.020251, -0.019718, -0.018386, -0.020518, -0.019985, -0.019185, -0.021051, -0.018119, -0.020251, -0.018119, -0.021583, -0.020251, -0.022116, -0.019452, -0.020251, -0.022649, -0.017587, -0.020518, -0.019452, -0.019985, -0.020518, -0.020784, -0.019185, -0.016254, -0.018652, -0.020784, -0.019185, -0.020251, -0.018119, -0.018919, -0.019185, -0.016521, -0.020251, -0.019718, -0.019185, -0.020251, -0.018919, -0.018919, -0.020251, -0.018652, -0.016521, -0.020784, -0.020784, -0.01732, -0.021317, -0.021317, -0.017853, -0.017853, -0.015988, -0.019452, -0.021317, -0.019452, -0.019452, -0.019985, -0.020784, -0.018386, -0.016787, -0.018386, -0.018652, -0.019985, -0.018919, -0.020518, -0.019452, -0.016787, -0.019452, -0.019718, -0.019718, -0.019185, -0.015455, -0.022116, -0.019185, -0.021583, -0.021583, -0.019718, -0.019185, -0.018386, -0.019718, -0.018386, -0.019718, -0.020784, -0.020784, -0.019452, -0.019185, -0.017853, -0.021051, -0.019718, -0.020784, -0.017587, -0.019985, -0.022383, -0.019985, -0.021317, -0.018386, -0.017853, -0.020251, -0.022649, -0.019185, -0.019718, -0.018119, -0.019985, -0.02185, -0.021317, -0.019185, -0.018119, -0.020518, -0.018652, -0.022383, -0.019452, -0.020784, -0.02185, -0.018919, -0.018119, -0.020518, -0.018386, -0.021583, -0.019985, -0.018919, -0.018652, -0.020784, -0.018919, -0.020518, -0.020518, -0.019452, -0.018652, -0.018386, -0.017587, -0.019185, -0.018119, -0.018652, -0.019185, -0.018386, -0.022649, -0.021051, -0.019985, -0.021317, -0.021317, -0.017054, -0.021583, -0.020784, -0.018652, -0.020518, -0.019452, -0.019452, -0.018652, -0.019718, -0.020518, -0.020518, -0.022116, -0.019452, -0.020784, -0.017054, -0.018919, -0.019185, -0.019718, -0.019185, -0.020518, -0.019718, -0.016254, -0.021051, -0.017587, -0.020518, -0.019985, -0.022116, -0.017054, -0.019985, -0.020251, -0.018652, -0.018919, -0.017853, -0.020251, -0.018919, -0.020784, -0.022383, -0.019718, -0.018386, -0.021583, -0.019185, -0.016254, -0.019718, -0.018652, -0.020251, -0.021051, -0.01732, -0.016254, -0.019718, -0.019718, -0.022916, -0.018919, -0.018652, -0.020251]"
2158,"[0.311246, 0.438139, 0.337582, 0.387861, 0.356736, 0.402226, 0.411803, 0.277727, 0.407014, 0.565032, 0.306458, 0.380678, 0.452504, 0.445322, 0.328006, 0.397437, 0.428562, 0.339977, 0.368707, 0.40462, 0.457293, 0.351948, 0.351948, 0.395043, 0.462081, 0.387861, 0.414197, 0.486023, 0.368707, 0.42138, 0.395043, 0.351948, 0.292093, 0.454898, 0.3304, 0.260968, 0.395043, 0.469264, 0.368707, 0.363919, 0.45011, 0.320823, 0.390255, 0.435745, 0.361524, 0.363919, 0.438139, 0.409408, 0.354342, 0.37589, 0.42138, 0.368707, 0.397437, 0.368707, 0.339977, 0.438139, 0.390255, 0.383072, 0.366313, 0.395043, 0.435745, 0.399832, 0.390255, 0.392649, 0.392649, 0.3304, 0.37589, 0.387861, 0.294487, 0.392649, 0.351948, 0.390255, 0.318429, 0.366313, 0.351948, 0.306458, 0.459687, 0.368707, 0.347159, 0.335188, 0.380678, 0.466869, 0.344765, 0.325611, 0.385466, 0.399832, 0.289698, 0.42138, 0.380678, 0.35913, 0.248997, 0.416591, 0.363919, 0.3304, 0.433351, 0.445322, 0.397437, 0.418985, 0.414197, 0.311246, 0.323217, 0.428562, 0.392649, 0.414197, 0.378284, 0.37589, 0.416591, 0.40462, 0.45011, 0.368707, 0.37589, 0.486023, 0.397437, 0.347159, 0.356736, 0.392649, 0.339977, 0.409408, 0.452504, 0.354342, 0.351948, 0.397437, 0.418985, 0.40462, 0.466869, 0.349553, 0.339977, 0.363919, 0.387861, 0.363919, 0.304064, 0.371101, 0.395043, 0.299275, 0.335188, 0.380678, 0.378284, 0.363919, 0.423774, 0.37589, 0.380678, 0.387861, 0.42138, 0.387861, 0.371101, 0.368707, 0.378284, 0.392649, 0.397437, 0.339977, 0.35913, 0.320823, 0.383072, 0.409408, 0.316035, 0.428562, 0.390255, 0.35913, 0.387861, 0.418985, 0.35913, 0.347159, 0.414197, 0.37589, 0.35913, 0.373495, 0.42138, 0.380678, 0.433351, 0.433351, 0.363919, 0.323217, 0.387861, 0.344765, 0.282516, 0.399832, 0.42138, 0.31364, 0.270545, 0.474052, 0.351948, 0.296881, 0.354342, 0.395043, 0.323217, 0.387861, 0.366313, 0.277727, 0.335188, 0.457293, 0.328006, 0.248997, 0.418985, 0.368707, 0.385466, 0.337582, 0.428562, 0.337582, 0.380678, 0.373495, 0.368707, 0.337582, 0.349553, 0.371101, 0.349553, 0.397437, 0.383072, 0.40462, 0.354342, 0.40462, 0.402226, 0.342371, 0.452504, 0.383072, 0.349553, 0.380678, 0.426168, 0.363919, 0.337582, 0.416591, 0.457293, 0.339977, 0.380678, 0.368707, 0.402226, 0.320823, 0.409408, 0.45011, 0.356736, 0.40462, 0.42138, 0.308852, 0.323217, 0.428562, 0.395043, 0.373495, 0.383072, 0.37589, 0.433351, 0.366313, 0.3304, 0.299275, 0.414197, 0.481235, 0.349553, 0.428562, 0.351948, 0.390255, 0.344765, 0.349553, 0.399832, 0.423774, 0.363919, 0.373495, 0.35913, 0.282516, 0.356736, 0.37589, 0.356736, 0.37589, 0.428562, 0.344765, 0.332794, 0.366313, 0.395043, 0.304064, 0.416591, 0.397437, 0.3304, 0.354342, 0.342371, 0.356736, 0.371101, 0.433351, 0.387861, 0.351948, 0.428562, 0.371101, 0.342371, 0.37589, 0.371101, 0.371101, 0.292093, 0.402226, 0.368707, 0.390255, 0.407014, 0.363919, 0.387861, 0.35913, 0.407014, 0.418985, 0.368707, 0.390255, 0.457293, 0.411803, 0.363919, 0.385466, 0.397437, 0.356736]","[-0.574608, -0.517148, -0.545878, -0.490811, -0.56982, -0.574608, -0.565032, -0.517148, -0.545878, -0.54109, -0.517148, -0.505177, -0.550666, -0.476446, -0.507571, -0.488417, -0.514753, -0.514753, -0.543484, -0.557849, -0.519542, -0.517148, -0.507571, -0.505177, -0.509965, -0.565032, -0.538695, -0.497994, -0.557849, -0.560243, -0.509965, -0.490811, -0.54109, -0.555455, -0.502782, -0.610521, -0.490811, -0.488417, -0.490811, -0.486023, -0.574608, -0.52433, -0.500388, -0.550666, -0.521936, -0.4956, -0.562637, -0.521936, -0.584185, -0.533907, -0.536301, -0.553061, -0.529119, -0.555455, -0.500388, -0.52433, -0.476446, -0.502782, -0.555455, -0.550666, -0.579397, -0.56982, -0.581791, -0.553061, -0.514753, -0.612916, -0.593762, -0.52433, -0.579397, -0.486023, -0.526724, -0.54109, -0.548272, -0.512359, -0.440533, -0.454898, -0.529119, -0.514753, -0.548272, -0.500388, -0.533907, -0.584185, -0.538695, -0.553061, -0.483629, -0.52433, -0.548272, -0.54109, -0.54109, -0.586579, -0.52433, -0.476446, -0.519542, -0.543484, -0.514753, -0.562637, -0.553061, -0.543484, -0.521936, -0.54109, -0.521936, -0.531513, -0.526724, -0.514753, -0.521936, -0.543484, -0.507571, -0.538695, -0.529119, -0.512359, -0.536301, -0.488417, -0.505177, -0.59855, -0.529119, -0.545878, -0.56982, -0.586579, -0.526724, -0.52433, -0.502782, -0.507571, -0.579397, -0.584185, -0.52433, -0.476446, -0.514753, -0.567426, -0.488417, -0.526724, -0.550666, -0.577003, -0.550666, -0.533907, -0.593762, -0.519542, -0.562637, -0.531513, -0.4956, -0.536301, -0.565032, -0.588974, -0.533907, -0.548272, -0.4956, -0.533907, -0.543484, -0.553061, -0.483629, -0.567426, -0.505177, -0.548272, -0.562637, -0.52433, -0.588974, -0.502782, -0.567426, -0.557849, -0.557849, -0.500388, -0.526724, -0.550666, -0.588974, -0.581791, -0.533907, -0.54109, -0.557849, -0.593762, -0.536301, -0.509965, -0.557849, -0.567426, -0.553061, -0.577003, -0.560243, -0.507571, -0.533907, -0.538695, -0.536301, -0.555455, -0.584185, -0.555455, -0.533907, -0.526724, -0.565032, -0.514753, -0.555455, -0.548272, -0.483629, -0.505177, -0.550666, -0.536301, -0.505177, -0.500388, -0.577003, -0.557849, -0.481235, -0.533907, -0.557849, -0.577003, -0.531513, -0.560243, -0.526724, -0.4956, -0.562637, -0.486023, -0.497994, -0.514753, -0.572214, -0.560243, -0.543484, -0.557849, -0.567426, -0.588974, -0.572214, -0.531513, -0.588974, -0.565032, -0.579397, -0.521936, -0.555455, -0.620098, -0.545878, -0.490811, -0.586579, -0.636858, -0.531513, -0.521936, -0.562637, -0.538695, -0.517148, -0.500388, -0.557849, -0.514753, -0.603339, -0.483629, -0.481235, -0.509965, -0.577003, -0.553061, -0.550666, -0.507571, -0.502782, -0.526724, -0.548272, -0.562637, -0.574608, -0.509965, -0.562637, -0.529119, -0.56982, -0.526724, -0.605733, -0.560243, -0.521936, -0.577003, -0.509965, -0.474052, -0.545878, -0.517148, -0.52433, -0.579397, -0.548272, -0.562637, -0.579397, -0.483629, -0.529119, -0.507571, -0.509965, -0.562637, -0.514753, -0.536301, -0.543484, -0.471658, -0.536301, -0.526724, -0.514753, -0.586579, -0.509965, -0.574608, -0.507571, -0.519542, -0.543484, -0.588974, -0.538695, -0.617704, -0.486023, -0.500388, -0.505177, -0.497994, -0.502782, -0.533907, -0.553061, -0.500388, -0.514753, -0.56982, -0.577003, -0.517148, -0.509965, -0.545878]","[9.361329, 9.303867, 9.325416, 9.303867, 9.356541, 9.258378, 9.349358, 9.406818, 9.284714, 9.323022, 9.449914, 9.358934, 9.244013, 9.406818, 9.454702, 9.354146, 9.318233, 9.483433, 9.473856, 9.246407, 9.306262, 9.416395, 9.294291, 9.188946, 9.323022, 9.299079, 9.32781, 9.421184, 9.284714, 9.28232, 9.44752, 9.368511, 9.375694, 9.397242, 9.318233, 9.461885, 9.344569, 9.392453, 9.43076, 9.313444, 9.380483, 9.313444, 9.370906, 9.363723, 9.361329, 9.358934, 9.414001, 9.330204, 9.291897, 9.339781, 9.366117, 9.356541, 9.318233, 9.358934, 9.263166, 9.378088, 9.454702, 9.351752, 9.330204, 9.334992, 9.349358, 9.267955, 9.394848, 9.306262, 9.346964, 9.375694, 9.294291, 9.366117, 9.356541, 9.346964, 9.375694, 9.339781, 9.346964, 9.358934, 9.368511, 9.397242, 9.416395, 9.354146, 9.394848, 9.325416, 9.334992, 9.323022, 9.3733, 9.423578, 9.318233, 9.332599, 9.406818, 9.3733, 9.390059, 9.313444, 9.299079, 9.342175, 9.334992, 9.339781, 9.409213, 9.358934, 9.296685, 9.361329, 9.392453, 9.368511, 9.421184, 9.346964, 9.325416, 9.346964, 9.289502, 9.306262, 9.227253, 9.411607, 9.313444, 9.366117, 9.306262, 9.445126, 9.425972, 9.318233, 9.40203, 9.356541, 9.358934, 9.334992, 9.378088, 9.435549, 9.380483, 9.277532, 9.232041, 9.260772, 9.32781, 9.361329, 9.284714, 9.354146, 9.370906, 9.339781, 9.43076, 9.382876, 9.31105, 9.287108, 9.315839, 9.41879, 9.370906, 9.306262, 9.25359, 9.26556, 9.344569, 9.337387, 9.346964, 9.385271, 9.337387, 9.339781, 9.325416, 9.28232, 9.330204, 9.368511, 9.404425, 9.306262, 9.356541, 9.358934, 9.323022, 9.26556, 9.31105, 9.349358, 9.296685, 9.370906, 9.31105, 9.354146, 9.346964, 9.361329, 9.385271, 9.399636, 9.337387, 9.440337, 9.287108, 9.421184, 9.394848, 9.414001, 9.299079, 9.416395, 9.392453, 9.370906, 9.342175, 9.375694, 9.363723, 9.497798, 9.332599, 9.308656, 9.349358, 9.272743, 9.26556, 9.368511, 9.406818, 9.380483, 9.308656, 9.437943, 9.375694, 9.334992, 9.296685, 9.397242, 9.41879, 9.397242, 9.437943, 9.344569, 9.466674, 9.339781, 9.270349, 9.325416, 9.433155, 9.442732, 9.409213, 9.394848, 9.428367, 9.344569, 9.380483, 9.275137, 9.414001, 9.435549, 9.306262, 9.303867, 9.435549, 9.406818, 9.375694, 9.387665, 9.409213, 9.318233, 9.380483, 9.406818, 9.318233, 9.306262, 9.349358, 9.323022, 9.318233, 9.394848, 9.428367, 9.361329, 9.315839, 9.337387, 9.306262, 9.370906, 9.356541, 9.308656, 9.284714, 9.306262, 9.368511, 9.330204, 9.279925, 9.291897, 9.351752, 9.344569, 9.370906, 9.390059, 9.356541, 9.248801, 9.380483, 9.332599, 9.358934, 9.406818, 9.423578, 9.315839, 9.404425, 9.301474, 9.299079, 9.339781, 9.346964, 9.411607, 9.32781, 9.318233, 9.299079, 9.43076, 9.392453, 9.354146, 9.344569, 9.466674, 9.346964, 9.41879, 9.394848, 9.399636, 9.303867, 9.301474, 9.294291, 9.41879, 9.337387, 9.440337, 9.342175, 9.349358, 9.275137, 9.323022, 9.390059, 9.375694, 9.291897, 9.289502, 9.366117, 9.339781, 9.478644, 9.349358, 9.301474, 9.354146, 9.394848, 9.323022, 9.358934, 9.306262, 9.411607, 9.423578, 9.325416, 9.320627]","[-0.009326, -0.006662, -0.004796, -0.008527, -0.008793, -0.005596, -0.007461, -0.007994, -0.007994, -0.007194, -0.008793, -0.006928, -0.00826, -0.00373, -0.009593, -0.006928, -0.006662, -0.006129, -0.008527, -0.007994, -0.005862, -0.009859, -0.00906, -0.007727, -0.007194, -0.006928, -0.006395, -0.005329, -0.007461, -0.007194, -0.009326, -0.00906, -0.006662, -0.008527, -0.006129, -0.009859, -0.009326, -0.007727, -0.00453, -0.007994, -0.009326, -0.009859, -0.007194, -0.008527, -0.010392, -0.010925, -0.00826, -0.00453, -0.00826, -0.008527, -0.009326, -0.009593, -0.007994, -0.007727, -0.00906, -0.008527, -0.006395, -0.010126, -0.006129, -0.006395, -0.007994, -0.006662, -0.00906, -0.007194, -0.00826, -0.007461, -0.007727, -0.007461, -0.005862, -0.007194, -0.008793, -0.007727, -0.007461, -0.005329, -0.006662, -0.010126, -0.006928, -0.006395, -0.007461, -0.007727, -0.007461, -0.007727, -0.006129, -0.007994, -0.008793, -0.008527, -0.006395, -0.006662, -0.006928, -0.006395, -0.009859, -0.006129, -0.007461, -0.007461, -0.005329, -0.009593, -0.00826, -0.007194, -0.008793, -0.006928, -0.007461, -0.008793, -0.009326, -0.010925, -0.010126, -0.005329, -0.007727, -0.005329, -0.00826, -0.005063, -0.007461, -0.009326, -0.007727, -0.007194, -0.008527, -0.007727, -0.006395, -0.006662, -0.006662, -0.007994, -0.006928, -0.006129, -0.004263, -0.008793, -0.005063, -0.005329, -0.006395, -0.006395, -0.008793, -0.007727, -0.005329, -0.006662, -0.008793, -0.007727, -0.006129, -0.007194, -0.007727, -0.00826, -0.003997, -0.005596, -0.009859, -0.005329, -0.007994, -0.008527, -0.00826, -0.009593, -0.007727, -0.007194, -0.007461, -0.00453, -0.006395, -0.007994, -0.006129, -0.008527, -0.00906, -0.007727, -0.007194, -0.007727, -0.007194, -0.007727, -0.00453, -0.006928, -0.006662, -0.007461, -0.00906, -0.004796, -0.009593, -0.008527, -0.005063, -0.006662, -0.006928, -0.006129, -0.007194, -0.007994, -0.009593, -0.008793, -0.006662, -0.006928, -0.006928, -0.005063, -0.006395, -0.006662, -0.006662, -0.010925, -0.007727, -0.005063, -0.007194, -0.008527, -0.006928, -0.003464, -0.00826, -0.008793, -0.007194, -0.007994, -0.008527, -0.005596, -0.006395, -0.006662, -0.007461, -0.003997, -0.010925, -0.007461, -0.008527, -0.006395, -0.005329, -0.008793, -0.00826, -0.006662, -0.006662, -0.005862, -0.005329, -0.006928, -0.007994, -0.006395, -0.00826, -0.006928, -0.00906, -0.005596, -0.009326, -0.00906, -0.008527, -0.002665, -0.006928, -0.006928, -0.003464, -0.007727, -0.007194, -0.006928, -0.006129, -0.007727, -0.005063, -0.00826, -0.005596, -0.006928, -0.005596, -0.005862, -0.00826, -0.00826, -0.006395, -0.008793, -0.00826, -0.009326, -0.007194, -0.007727, -0.009326, -0.006129, -0.006129, -0.007194, -0.00826, -0.006662, -0.005063, -0.008793, -0.009326, -0.007461, -0.009593, -0.007194, -0.008527, -0.006662, -0.006662, -0.007727, -0.010925, -0.006395, -0.005596, -0.006395, -0.008527, -0.007994, -0.008793, -0.009326, -0.006129, -0.007994, -0.007461, -0.006129, -0.005063, -0.006662, -0.007194, -0.008793, -0.010126, -0.009326, -0.009326, -0.006662, -0.006129, -0.006395, -0.010658, -0.007194, -0.007727, -0.007727, -0.006662, -0.005596, -0.006662, -0.009859, -0.005862, -0.007194, -0.006129, -0.007194, -0.006662, -0.008527, -0.007194, -0.007994, -0.005862, -0.006928]","[-0.040502, -0.045299, -0.040236, -0.039969, -0.040769, -0.0429, -0.040769, -0.0437, -0.045832, -0.042101, -0.0429, -0.041302, -0.041568, -0.042368, -0.043966, -0.0429, -0.042101, -0.041568, -0.042101, -0.043433, -0.041835, -0.041302, -0.0437, -0.0437, -0.041568, -0.039703, -0.040502, -0.041568, -0.040236, -0.040236, -0.043167, -0.041568, -0.043167, -0.042368, -0.043433, -0.042368, -0.043167, -0.043966, -0.040502, -0.039703, -0.040236, -0.041568, -0.0437, -0.042368, -0.042634, -0.045299, -0.042101, -0.040236, -0.0429, -0.044499, -0.044233, -0.045832, -0.042101, -0.039703, -0.044499, -0.041302, -0.042101, -0.043167, -0.042634, -0.042634, -0.042101, -0.043167, -0.042368, -0.042634, -0.041035, -0.039969, -0.041302, -0.0429, -0.041568, -0.044233, -0.042634, -0.045032, -0.040502, -0.043966, -0.042101, -0.040502, -0.042634, -0.040769, -0.042634, -0.041035, -0.041835, -0.0437, -0.042101, -0.0429, -0.043433, -0.043966, -0.044766, -0.042368, -0.044499, -0.042101, -0.042101, -0.0429, -0.041035, -0.039703, -0.045832, -0.045032, -0.039703, -0.043966, -0.043167, -0.041035, -0.0429, -0.043966, -0.042101, -0.041035, -0.043167, -0.043167, -0.0429, -0.041568, -0.045299, -0.043966, -0.041568, -0.041835, -0.042101, -0.0437, -0.043433, -0.042634, -0.043167, -0.042368, -0.042634, -0.041035, -0.043966, -0.042368, -0.039436, -0.041835, -0.0429, -0.042368, -0.043167, -0.042634, -0.040769, -0.042368, -0.044233, -0.042101, -0.040502, -0.043167, -0.044233, -0.040236, -0.0429, -0.042368, -0.0437, -0.039703, -0.045032, -0.043167, -0.040502, -0.038371, -0.040769, -0.041035, -0.043966, -0.042368, -0.040236, -0.042368, -0.041302, -0.0429, -0.041035, -0.041035, -0.042368, -0.042101, -0.040502, -0.042101, -0.040502, -0.041302, -0.041035, -0.042101, -0.042634, -0.041035, -0.042101, -0.039703, -0.042368, -0.041035, -0.044233, -0.044499, -0.045032, -0.042634, -0.041835, -0.042101, -0.043433, -0.041835, -0.041568, -0.041835, -0.044233, -0.042101, -0.042101, -0.0429, -0.041035, -0.043966, -0.040769, -0.043966, -0.041835, -0.0429, -0.040769, -0.043433, -0.041835, -0.040769, -0.0429, -0.041035, -0.041302, -0.041035, -0.041302, -0.044233, -0.0429, -0.042368, -0.041835, -0.041035, -0.041835, -0.040769, -0.043167, -0.040769, -0.038104, -0.040769, -0.042101, -0.043167, -0.045299, -0.041035, -0.041568, -0.042368, -0.042634, -0.0429, -0.0429, -0.041035, -0.042368, -0.043167, -0.042634, -0.040236, -0.03917, -0.041035, -0.042634, -0.042101, -0.040502, -0.0429, -0.043433, -0.0429, -0.041302, -0.043433, -0.041035, -0.042368, -0.041035, -0.0437, -0.041568, -0.040769, -0.044233, -0.0429, -0.044499, -0.041568, -0.042634, -0.0437, -0.0429, -0.040769, -0.042101, -0.044499, -0.042368, -0.044233, -0.041835, -0.043433, -0.041035, -0.044233, -0.041835, -0.041035, -0.041835, -0.044233, -0.042368, -0.0437, -0.043167, -0.042368, -0.041302, -0.043167, -0.042101, -0.043167, -0.0429, -0.041835, -0.0429, -0.040502, -0.037838, -0.040502, -0.040502, -0.043433, -0.041835, -0.043966, -0.044233, -0.041035, -0.041568, -0.044233, -0.043433, -0.045032, -0.040236, -0.041035, -0.040769, -0.043966, -0.043167, -0.043966, -0.0429, -0.044233, -0.043433, -0.041835, -0.041835, -0.042634, -0.042634, -0.041035, -0.042101, -0.0429, -0.0437, -0.039703]","[-0.019452, -0.019185, -0.018919, -0.020518, -0.018919, -0.017587, -0.019185, -0.018919, -0.021051, -0.020784, -0.020518, -0.021051, -0.018119, -0.020518, -0.021317, -0.018119, -0.018119, -0.022116, -0.018386, -0.018119, -0.019985, -0.022383, -0.018919, -0.018919, -0.019452, -0.018119, -0.023715, -0.021051, -0.018386, -0.019452, -0.017054, -0.021317, -0.019185, -0.022916, -0.016521, -0.020518, -0.015721, -0.020518, -0.018919, -0.017587, -0.018919, -0.022916, -0.018119, -0.020784, -0.021317, -0.019452, -0.01732, -0.018386, -0.02185, -0.018919, -0.017853, -0.019985, -0.018119, -0.019718, -0.018119, -0.019985, -0.017853, -0.019452, -0.021317, -0.018652, -0.017853, -0.017587, -0.020518, -0.021051, -0.019985, -0.019985, -0.017054, -0.018652, -0.021317, -0.019718, -0.021051, -0.021051, -0.021051, -0.016521, -0.020784, -0.019985, -0.018919, -0.019985, -0.018919, -0.020518, -0.019452, -0.019985, -0.018652, -0.017587, -0.020784, -0.017853, -0.022916, -0.019985, -0.020784, -0.016254, -0.01732, -0.021051, -0.021051, -0.017587, -0.020784, -0.017054, -0.018386, -0.019985, -0.022116, -0.02185, -0.018652, -0.019452, -0.018919, -0.019452, -0.019185, -0.019452, -0.016787, -0.019185, -0.019452, -0.019718, -0.022383, -0.021051, -0.020518, -0.020518, -0.02185, -0.019985, -0.020518, -0.018919, -0.019985, -0.02185, -0.017054, -0.020518, -0.020518, -0.020784, -0.018386, -0.020784, -0.021583, -0.020251, -0.017587, -0.020784, -0.020251, -0.018652, -0.019452, -0.021583, -0.021317, -0.019985, -0.019718, -0.017587, -0.019185, -0.019185, -0.019985, -0.018919, -0.014922, -0.021051, -0.019985, -0.021051, -0.02185, -0.021317, -0.018652, -0.01732, -0.018386, -0.018119, -0.020784, -0.019452, -0.016787, -0.019985, -0.018386, -0.02185, -0.017853, -0.017054, -0.017853, -0.02185, -0.020784, -0.019452, -0.019718, -0.021051, -0.020784, -0.018652, -0.02185, -0.01732, -0.019185, -0.020518, -0.020784, -0.018919, -0.019452, -0.020251, -0.022916, -0.019985, -0.021051, -0.018919, -0.021317, -0.017587, -0.018919, -0.018386, -0.01732, -0.018919, -0.020251, -0.019185, -0.019985, -0.018386, -0.021317, -0.023182, -0.019718, -0.019718, -0.018386, -0.016521, -0.018386, -0.018386, -0.020518, -0.022383, -0.021051, -0.018919, -0.021051, -0.019452, -0.021583, -0.020518, -0.016787, -0.017054, -0.016787, -0.018386, -0.019985, -0.019718, -0.01732, -0.019718, -0.020518, -0.017587, -0.019718, -0.019185, -0.018119, -0.019985, -0.021583, -0.023449, -0.020251, -0.019185, -0.018652, -0.020518, -0.019718, -0.018386, -0.019452, -0.020784, -0.01732, -0.021051, -0.019985, -0.020518, -0.016787, -0.019452, -0.020784, -0.021317, -0.019718, -0.019985, -0.021317, -0.018386, -0.018119, -0.019185, -0.018386, -0.020251, -0.018386, -0.018919, -0.017054, -0.018919, -0.021051, -0.018386, -0.020518, -0.02185, -0.019452, -0.021051, -0.019985, -0.018386, -0.019185, -0.020784, -0.020518, -0.019985, -0.020251, -0.021051, -0.021051, -0.018119, -0.021317, -0.019452, -0.017587, -0.02185, -0.022116, -0.022116, -0.018652, -0.019718, -0.017853, -0.019452, -0.019718, -0.021317, -0.021317, -0.020784, -0.022649, -0.02185, -0.021051, -0.019452, -0.022649, -0.020518, -0.019718, -0.018386, -0.019985, -0.018919, -0.018652, -0.01732, -0.020251, -0.021317, -0.019985, -0.019985, -0.021051, -0.017054, -0.018652, -0.019985]"
