time,ax,ay,az,gx,gy,gz
1195,"[-0.031125, -0.016759, 0.002394, -0.081403, -0.067038, 0.02873, -0.062249, -0.059855, 0.038307, -0.021548, -0.076614, -0.02873, 0, -0.043096, -0.07422, -0.009577, -0.004788, -0.009577, -0.014365, 0.002394, -0.081403, 0.050278, 0.004788, 0.033519, -0.02873, -0.02873, -0.079009, -0.040701, 0.021548, 0.031125, -0.055067, -0.04549, 0.071826, -0.064643, -0.047884, 0.038307, 0.002394, -0.055067, -0.069432, 0.011971, -0.014365, -0.059855, -0.016759, -0.038307, -0.076614, -0.064643, 0.026336, -0.102951, -0.04549, 0, -0.035913, -0.047884, -0.035913, -0.083797, -0.107739, -0.081403, -0.023942, -0.062249, -0.071826, 0.052672, -0.083797, -0.031125, -0.071826, -0.009577, -0.064643, -0.112527, -0.07422, -0.007183, -0.052672, -0.112527, 0.019154, 0.081403, 0.009577, -0.069432, -0.023942, -0.067038, -0.062249, -0.007183, -0.033519, -0.062249, -0.021548, 0.019154, -0.040701, -0.083797, 0.021548, -0.067038, -0.040701, -0.035913, -0.043096, -0.050278, -0.057461, 0.026336, -0.064643, -0.102951, -0.033519, -0.035913, 0.004788, -0.040701, -0.04549, -0.035913, -0.069432, 0.026336, -0.038307, -0.081403, 0.014365, -0.038307, -0.102951, -0.069432, -0.014365, -0.047884, -0.105345, -0.069432, -0.011971, -0.102951, -0.088585, 0.031125, -0.050278, -0.007183, -0.011971, -0.04549, -0.098162, -0.050278, 0.02873, -0.081403, -0.088585, 0.019154, -0.014365, -0.057461, -0.062249, -0.009577, -0.050278, -0.031125, -0.052672, 0.007183, -0.064643, 0, 0.016759, -0.023942, -0.059855, -0.033519, -0.067038, -0.062249, -0.004788, -0.052672, -0.062249, -0.002394, -0.033519, -0.057461, -0.07422, 0, 0.057461, -0.059855, -0.071826, -0.035913, 0.002394, -0.093374, 0.002394, -0.02873, -0.050278, -0.047884, 0, -0.088585, -0.088585, -0.002394, -0.019154, -0.021548, -0.07422, 0.021548, 0.007183, -0.062249, 0.004788, -0.033519, -0.043096, -0.023942, -0.062249, -0.014365, -0.07422, 0.007183, -0.038307, -0.098162, -0.071826, -0.02873, -0.069432, 0.004788, 0.011971, -0.064643, -0.11971, 0.033519, -0.014365, -0.129287, -0.033519, 0.016759, -0.064643, -0.079009, 0.026336, -0.04549, -0.040701, 0.011971, 0.031125, -0.055067, -0.138864, -0.033519, -0.026336, -0.014365, -0.040701, -0.055067, 0, -0.071826, 0.009577, 0.002394, -0.067038, 0.02873, 0.038307, -0.023942, -0.062249, 0, -0.052672, -0.071826, -0.050278, -0.002394, 0.04549, -0.086191, 0.043096, -0.019154, -0.07422, -0.050278, -0.069432, 0.04549, -0.014365, 0.026336, -0.038307, -0.107739, 0.009577, -0.004788, -0.134075, -0.088585, -0.009577, -0.07422, -0.069432, -0.02873, 0, -0.062249, -0.081403, -0.004788, -0.059855, -0.071826, -0.023942, 0, -0.007183, -0.057461, -0.023942, -0.102951, -0.069432, 0.009577, -0.052672, -0.026336, -0.002394, -0.088585, -0.009577, -0.031125, 0.009577, -0.055067, -0.114922, 0.071826, -0.014365, -0.069432, -0.07422, 0.021548, 0.026336, -0.071826, -0.052672, -0.069432, 0.033519, -0.071826, -0.105345, 0.055067, -0.02873, -0.023942, 0.009577, -0.040701, -0.076614, -0.016759, 0.059855, -0.071826, 0, 0.040701, 0, -0.059855, -0.079009, -0.055067, -0.035913, -0.07422, -0.052672, -0.076614, -0.035913, 0.02873, -0.023942, -0.112527, -0.031125, 0]","[-0.560243, -0.54109, -0.548272, -0.593762, -0.593762, -0.557849, -0.610521, -0.600945, -0.596156, -0.565032, -0.620098, -0.581791, -0.567426, -0.555455, -0.622492, -0.514753, -0.574608, -0.588974, -0.600945, -0.567426, -0.536301, -0.600945, -0.584185, -0.610521, -0.586579, -0.545878, -0.536301, -0.591368, -0.579397, -0.574608, -0.612916, -0.59855, -0.56982, -0.59855, -0.586579, -0.514753, -0.579397, -0.622492, -0.593762, -0.557849, -0.56982, -0.624887, -0.562637, -0.61531, -0.608127, -0.56982, -0.636858, -0.56982, -0.59855, -0.526724, -0.61531, -0.596156, -0.593762, -0.593762, -0.596156, -0.56982, -0.608127, -0.612916, -0.562637, -0.64404, -0.634463, -0.565032, -0.567426, -0.579397, -0.588974, -0.584185, -0.600945, -0.548272, -0.577003, -0.56982, -0.548272, -0.59855, -0.579397, -0.586579, -0.596156, -0.608127, -0.557849, -0.596156, -0.579397, -0.514753, -0.605733, -0.61531, -0.584185, -0.596156, -0.560243, -0.627281, -0.584185, -0.629675, -0.555455, -0.593762, -0.608127, -0.555455, -0.586579, -0.56982, -0.636858, -0.577003, -0.61531, -0.531513, -0.603339, -0.560243, -0.548272, -0.553061, -0.567426, -0.612916, -0.612916, -0.545878, -0.588974, -0.629675, -0.543484, -0.646434, -0.61531, -0.596156, -0.586579, -0.574608, -0.610521, -0.584185, -0.550666, -0.612916, -0.557849, -0.56982, -0.608127, -0.557849, -0.610521, -0.596156, -0.572214, -0.600945, -0.521936, -0.620098, -0.577003, -0.550666, -0.624887, -0.565032, -0.572214, -0.572214, -0.59855, -0.577003, -0.593762, -0.636858, -0.567426, -0.617704, -0.636858, -0.629675, -0.634463, -0.565032, -0.651223, -0.610521, -0.577003, -0.632069, -0.577003, -0.596156, -0.629675, -0.574608, -0.565032, -0.555455, -0.591368, -0.605733, -0.574608, -0.629675, -0.584185, -0.608127, -0.596156, -0.596156, -0.545878, -0.577003, -0.567426, -0.658405, -0.64404, -0.581791, -0.584185, -0.579397, -0.555455, -0.588974, -0.632069, -0.586579, -0.562637, -0.572214, -0.591368, -0.639252, -0.61531, -0.605733, -0.557849, -0.56982, -0.548272, -0.603339, -0.526724, -0.596156, -0.584185, -0.560243, -0.634463, -0.557849, -0.603339, -0.54109, -0.608127, -0.632069, -0.565032, -0.557849, -0.634463, -0.538695, -0.593762, -0.572214, -0.605733, -0.620098, -0.574608, -0.627281, -0.562637, -0.608127, -0.651223, -0.605733, -0.567426, -0.605733, -0.591368, -0.624887, -0.584185, -0.64404, -0.627281, -0.529119, -0.581791, -0.596156, -0.610521, -0.531513, -0.603339, -0.620098, -0.553061, -0.560243, -0.610521, -0.61531, -0.658405, -0.584185, -0.562637, -0.553061, -0.605733, -0.59855, -0.574608, -0.59855, -0.548272, -0.612916, -0.574608, -0.565032, -0.596156, -0.577003, -0.617704, -0.610521, -0.586579, -0.612916, -0.603339, -0.543484, -0.567426, -0.617704, -0.639252, -0.562637, -0.560243, -0.557849, -0.586579, -0.579397, -0.617704, -0.620098, -0.617704, -0.565032, -0.579397, -0.543484, -0.632069, -0.591368, -0.596156, -0.577003, -0.512359, -0.639252, -0.603339, -0.651223, -0.61531, -0.603339, -0.565032, -0.577003, -0.553061, -0.591368, -0.581791, -0.548272, -0.574608, -0.617704, -0.514753, -0.536301, -0.577003, -0.553061, -0.536301, -0.629675, -0.567426, -0.538695, -0.584185, -0.634463, -0.550666, -0.531513, -0.608127, -0.593762, -0.514753, -0.519542, -0.622492, -0.617704, -0.581791, -0.553061, -0.577003, -0.603339]","[9.303867, 9.346964, 9.337387, 9.354146, 9.277532, 9.279925, 9.368511, 9.370906, 9.31105, 9.342175, 9.334992, 9.452309, 9.380483, 9.308656, 9.323022, 9.392453, 9.425972, 9.404425, 9.289502, 9.284714, 9.370906, 9.394848, 9.313444, 9.313444, 9.275137, 9.351752, 9.342175, 9.323022, 9.26556, 9.361329, 9.378088, 9.277532, 9.272743, 9.337387, 9.323022, 9.291897, 9.394848, 9.392453, 9.41879, 9.217676, 9.356541, 9.375694, 9.299079, 9.308656, 9.354146, 9.306262, 9.277532, 9.306262, 9.315839, 9.301474, 9.339781, 9.315839, 9.409213, 9.272743, 9.349358, 9.296685, 9.363723, 9.390059, 9.222465, 9.301474, 9.394848, 9.385271, 9.356541, 9.284714, 9.363723, 9.315839, 9.220071, 9.358934, 9.366117, 9.334992, 9.320627, 9.303867, 9.224859, 9.334992, 9.330204, 9.339781, 9.378088, 9.339781, 9.344569, 9.323022, 9.31105, 9.349358, 9.40203, 9.382876, 9.330204, 9.289502, 9.358934, 9.358934, 9.323022, 9.294291, 9.32781, 9.428367, 9.346964, 9.339781, 9.351752, 9.303867, 9.411607, 9.267955, 9.31105, 9.339781, 9.279925, 9.382876, 9.342175, 9.375694, 9.232041, 9.332599, 9.387665, 9.440337, 9.277532, 9.272743, 9.332599, 9.28232, 9.330204, 9.43076, 9.239224, 9.3733, 9.332599, 9.337387, 9.318233, 9.378088, 9.349358, 9.263166, 9.361329, 9.40203, 9.346964, 9.375694, 9.356541, 9.291897, 9.248801, 9.358934, 9.28232, 9.370906, 9.325416, 9.344569, 9.380483, 9.330204, 9.31105, 9.351752, 9.263166, 9.289502, 9.337387, 9.289502, 9.301474, 9.387665, 9.356541, 9.229648, 9.366117, 9.325416, 9.323022, 9.296685, 9.277532, 9.31105, 9.368511, 9.454702, 9.26556, 9.272743, 9.344569, 9.351752, 9.337387, 9.284714, 9.296685, 9.263166, 9.346964, 9.368511, 9.260772, 9.459491, 9.399636, 9.380483, 9.296685, 9.28232, 9.382876, 9.414001, 9.32781, 9.301474, 9.356541, 9.428367, 9.378088, 9.421184, 9.473856, 9.296685, 9.3733, 9.346964, 9.394848, 9.323022, 9.320627, 9.399636, 9.337387, 9.215282, 9.358934, 9.32781, 9.370906, 9.339781, 9.399636, 9.351752, 9.385271, 9.414001, 9.368511, 9.370906, 9.291897, 9.378088, 9.260772, 9.346964, 9.320627, 9.26556, 9.318233, 9.416395, 9.313444, 9.351752, 9.320627, 9.416395, 9.263166, 9.339781, 9.318233, 9.25359, 9.349358, 9.289502, 9.308656, 9.366117, 9.301474, 9.208099, 9.337387, 9.409213, 9.267955, 9.287108, 9.291897, 9.445126, 9.358934, 9.337387, 9.356541, 9.3733, 9.3733, 9.363723, 9.263166, 9.301474, 9.354146, 9.339781, 9.334992, 9.299079, 9.303867, 9.40203, 9.325416, 9.337387, 9.303867, 9.349358, 9.404425, 9.287108, 9.299079, 9.337387, 9.334992, 9.272743, 9.457097, 9.318233, 9.315839, 9.277532, 9.433155, 9.342175, 9.248801, 9.32781, 9.248801, 9.414001, 9.308656, 9.303867, 9.380483, 9.342175, 9.354146, 9.368511, 9.363723, 9.306262, 9.306262, 9.296685, 9.349358, 9.392453, 9.354146, 9.334992, 9.346964, 9.382876, 9.375694, 9.263166, 9.370906, 9.368511, 9.246407, 9.390059, 9.318233, 9.366117, 9.246407, 9.43076, 9.229648, 9.370906, 9.315839, 9.31105, 9.358934, 9.354146, 9.399636, 9.346964, 9.32781, 9.392453, 9.375694, 9.366117, 9.287108, 9.313444]","[-0.007994, -0.008793, -0.006662, -0.007461, -0.006129, -0.00826, -0.006928, -0.006662, -0.007194, -0.004796, -0.005063, -0.007727, -0.008527, -0.006928, -0.003997, -0.006395, -0.005329, -0.00826, -0.006662, -0.00906, -0.006395, -0.005596, -0.006662, -0.006662, -0.005596, -0.00826, -0.005063, -0.007461, -0.006129, -0.00453, -0.005596, -0.007461, -0.007994, -0.006928, -0.007461, -0.007194, -0.005063, -0.007994, -0.007727, -0.005596, -0.008527, -0.006129, -0.003464, -0.006129, -0.007461, -0.007194, -0.006129, -0.007994, -0.006662, -0.009859, -0.005862, -0.007461, -0.005862, -0.006395, -0.006928, -0.008793, -0.010392, -0.007461, -0.005862, -0.006662, -0.005596, -0.006129, -0.006928, -0.007994, -0.006395, -0.006129, -0.007994, -0.006928, -0.007461, -0.006928, -0.007461, -0.006129, -0.007461, -0.008527, -0.006395, -0.00453, -0.00826, -0.007194, -0.010925, -0.006662, -0.005063, -0.004796, -0.006395, -0.00826, -0.006928, -0.007994, -0.00453, -0.006928, -0.006129, -0.003464, -0.006662, -0.007194, -0.007727, -0.007727, -0.005596, -0.007194, -0.007194, -0.006129, -0.007994, -0.006395, -0.00826, -0.006928, -0.007727, -0.006129, -0.00906, -0.006129, -0.007194, -0.007461, -0.007994, -0.007194, -0.005596, -0.006662, -0.006395, -0.006395, -0.008527, -0.006662, -0.007461, -0.007727, -0.006395, -0.008527, -0.006928, -0.00906, -0.005063, -0.006662, -0.007994, -0.006662, -0.004796, -0.007994, -0.00826, -0.006395, -0.009593, -0.009859, -0.00906, -0.006928, -0.006928, -0.007994, -0.007461, -0.006395, -0.008527, -0.007461, -0.006928, -0.004263, -0.006395, -0.006129, -0.00906, -0.00906, -0.006662, -0.005329, -0.006395, -0.006928, -0.005862, -0.007727, -0.00906, -0.007461, -0.008527, -0.007994, -0.006395, -0.006129, -0.007994, -0.005063, -0.006928, -0.005329, -0.007727, -0.008527, -0.00826, -0.004796, -0.007994, -0.005862, -0.006395, -0.006395, -0.00826, -0.004796, -0.008527, -0.006662, -0.007194, -0.004263, -0.006395, -0.006662, -0.007461, -0.00826, -0.006129, -0.004796, -0.007727, -0.005862, -0.008527, -0.005329, -0.007194, -0.007461, -0.00826, -0.006129, -0.007461, -0.006928, -0.006395, -0.004796, -0.006395, -0.007727, -0.006129, -0.006928, -0.007194, -0.00453, -0.005596, -0.00906, -0.003997, -0.006662, -0.006928, -0.005862, -0.006395, -0.005329, -0.005862, -0.007994, -0.008793, -0.005329, -0.006395, -0.006928, -0.006395, -0.010126, -0.007727, -0.005063, -0.00906, -0.009326, -0.007461, -0.008793, -0.006395, -0.007461, -0.007727, -0.00826, -0.007194, -0.007194, -0.007461, -0.00826, -0.006129, -0.006129, -0.007994, -0.010126, -0.007994, -0.007727, -0.005862, -0.00453, -0.006395, -0.006928, -0.007727, -0.007194, -0.005862, -0.007194, -0.005596, -0.009859, -0.007994, -0.007994, -0.005596, -0.006395, -0.005329, -0.00826, -0.007727, -0.007194, -0.007727, -0.006928, -0.008793, -0.008793, -0.006662, -0.007461, -0.00373, -0.007727, -0.009326, -0.006662, -0.007461, -0.007194, -0.006395, -0.008793, -0.00373, -0.006662, -0.00826, -0.006395, -0.006395, -0.00826, -0.00453, -0.006662, -0.007994, -0.005596, -0.00826, -0.006395, -0.008793, -0.006928, -0.00826, -0.006662, -0.007461, -0.005596, -0.006662, -0.008527, -0.009326, -0.006395, -0.00906, -0.010392, -0.007461, -0.009326, -0.005596, -0.010392, -0.006928, -0.007194, -0.005596, -0.008793]","[-0.043966, -0.038637, -0.042101, -0.041568, -0.043966, -0.0437, -0.043433, -0.043167, -0.0429, -0.041835, -0.043167, -0.045032, -0.039703, -0.042368, -0.042634, -0.041835, -0.043433, -0.041568, -0.0429, -0.041568, -0.039436, -0.041568, -0.039969, -0.03917, -0.041302, -0.041568, -0.044766, -0.041035, -0.043433, -0.042634, -0.043966, -0.042634, -0.043433, -0.042368, -0.0429, -0.041302, -0.044499, -0.039703, -0.043167, -0.041568, -0.037571, -0.042634, -0.042634, -0.040502, -0.043433, -0.044233, -0.046631, -0.042634, -0.041835, -0.041302, -0.040502, -0.040502, -0.041035, -0.0437, -0.044766, -0.0437, -0.0437, -0.042101, -0.043966, -0.041035, -0.040502, -0.0437, -0.042634, -0.0429, -0.041302, -0.041568, -0.042101, -0.042634, -0.042101, -0.0429, -0.041035, -0.043167, -0.041035, -0.03917, -0.043167, -0.045299, -0.042368, -0.041302, -0.042634, -0.041835, -0.040769, -0.043966, -0.041835, -0.042101, -0.042368, -0.041568, -0.042368, -0.043433, -0.040502, -0.0437, -0.039703, -0.039969, -0.039436, -0.041568, -0.040769, -0.041835, -0.041035, -0.043167, -0.043966, -0.040769, -0.0429, -0.041302, -0.042368, -0.043433, -0.044499, -0.041568, -0.044233, -0.043966, -0.042368, -0.042368, -0.042101, -0.039969, -0.040236, -0.041302, -0.041835, -0.044233, -0.040502, -0.042101, -0.038904, -0.043167, -0.041302, -0.040502, -0.040769, -0.0429, -0.043433, -0.041835, -0.0429, -0.041302, -0.040769, -0.043167, -0.043167, -0.0429, -0.041835, -0.043433, -0.041035, -0.041568, -0.042101, -0.042634, -0.039969, -0.040769, -0.040769, -0.040236, -0.0429, -0.043433, -0.041302, -0.043433, -0.042368, -0.041302, -0.041035, -0.043966, -0.041302, -0.043167, -0.042368, -0.044766, -0.044233, -0.041035, -0.044766, -0.040769, -0.043167, -0.042634, -0.042368, -0.042634, -0.041568, -0.042101, -0.040236, -0.039969, -0.043433, -0.040502, -0.041568, -0.041302, -0.0437, -0.03917, -0.041568, -0.041835, -0.045299, -0.03917, -0.043433, -0.042368, -0.042634, -0.039436, -0.042634, -0.041835, -0.038637, -0.042101, -0.043167, -0.043433, -0.042368, -0.043433, -0.044499, -0.045032, -0.041568, -0.038637, -0.041835, -0.042101, -0.042101, -0.040769, -0.045299, -0.046364, -0.040769, -0.044766, -0.043167, -0.043167, -0.041568, -0.043433, -0.042101, -0.043167, -0.043167, -0.041835, -0.042368, -0.041835, -0.042634, -0.040236, -0.042101, -0.040769, -0.042634, -0.041835, -0.040502, -0.041568, -0.039969, -0.042101, -0.040502, -0.043167, -0.039703, -0.041035, -0.041035, -0.040769, -0.042634, -0.0429, -0.041302, -0.043966, -0.041835, -0.03917, -0.041302, -0.041035, -0.042101, -0.043167, -0.040236, -0.042368, -0.040502, -0.042368, -0.041568, -0.041035, -0.040502, -0.042634, -0.041035, -0.044233, -0.038904, -0.03917, -0.043966, -0.039436, -0.041568, -0.042101, -0.041302, -0.039969, -0.041302, -0.039969, -0.03917, -0.040502, -0.041035, -0.039436, -0.041835, -0.042368, -0.041035, -0.043167, -0.039436, -0.042368, -0.038637, -0.042368, -0.041035, -0.043433, -0.042368, -0.041568, -0.043167, -0.042368, -0.042101, -0.041302, -0.040502, -0.0437, -0.0429, -0.038904, -0.041568, -0.041835, -0.042368, -0.041835, -0.044233, -0.040502, -0.039969, -0.044499, -0.039703, -0.042101, -0.039436, -0.041302, -0.043167, -0.0437, -0.041835, -0.039969, -0.041835, -0.0429, -0.042101, -0.039969]","[-0.018919, -0.020251, -0.020784, -0.020784, -0.017853, -0.018386, -0.020784, -0.015721, -0.019452, -0.019718, -0.019985, -0.020251, -0.018652, -0.018119, -0.018919, -0.022916, -0.020251, -0.018386, -0.022649, -0.018119, -0.019185, -0.023715, -0.018119, -0.018652, -0.021051, -0.021583, -0.018386, -0.018919, -0.022383, -0.020251, -0.017853, -0.018386, -0.018652, -0.023449, -0.019718, -0.019185, -0.019452, -0.018652, -0.018652, -0.018919, -0.020251, -0.020251, -0.022916, -0.018386, -0.020251, -0.019452, -0.019985, -0.019985, -0.018919, -0.021051, -0.018652, -0.020784, -0.017853, -0.020251, -0.021583, -0.020251, -0.018119, -0.020518, -0.018919, -0.020251, -0.019452, -0.019718, -0.016787, -0.019185, -0.019718, -0.020518, -0.019185, -0.019185, -0.018919, -0.019185, -0.02185, -0.018652, -0.019985, -0.021317, -0.018919, -0.018386, -0.016521, -0.020251, -0.017853, -0.021317, -0.018919, -0.014922, -0.020784, -0.018919, -0.018652, -0.019452, -0.019452, -0.020518, -0.018386, -0.018386, -0.022916, -0.021317, -0.022383, -0.021051, -0.020518, -0.018919, -0.018919, -0.018652, -0.020251, -0.019452, -0.019452, -0.019185, -0.016521, -0.019185, -0.016254, -0.018919, -0.020518, -0.019985, -0.018386, -0.021051, -0.019985, -0.019985, -0.020784, -0.019718, -0.021051, -0.020251, -0.022649, -0.019185, -0.022649, -0.020251, -0.015455, -0.020518, -0.019452, -0.019452, -0.017853, -0.019718, -0.018386, -0.020251, -0.019718, -0.020784, -0.019985, -0.020518, -0.018919, -0.023182, -0.016787, -0.015988, -0.021051, -0.018652, -0.01732, -0.020251, -0.018386, -0.019185, -0.016521, -0.017054, -0.019452, -0.019718, -0.018652, -0.01732, -0.021051, -0.015721, -0.018652, -0.016254, -0.020784, -0.018652, -0.020784, -0.018386, -0.018386, -0.018919, -0.017853, -0.018919, -0.018386, -0.019718, -0.02185, -0.022649, -0.019452, -0.018919, -0.020518, -0.02185, -0.018652, -0.019185, -0.018386, -0.018386, -0.020784, -0.018652, -0.017587, -0.01732, -0.017853, -0.021317, -0.021583, -0.022383, -0.019185, -0.019985, -0.018386, -0.019185, -0.020518, -0.019185, -0.019452, -0.020518, -0.017587, -0.017853, -0.018919, -0.017587, -0.020251, -0.019985, -0.018119, -0.017853, -0.018119, -0.019185, -0.019452, -0.017054, -0.018652, -0.021051, -0.017853, -0.013323, -0.019452, -0.018386, -0.019452, -0.019985, -0.018386, -0.019185, -0.019452, -0.021317, -0.020251, -0.020251, -0.019452, -0.016787, -0.019185, -0.019985, -0.017587, -0.02185, -0.019185, -0.019985, -0.021051, -0.018386, -0.01732, -0.018919, -0.020518, -0.018652, -0.018919, -0.017054, -0.021051, -0.022116, -0.016787, -0.018119, -0.019985, -0.018386, -0.022649, -0.019185, -0.019185, -0.016787, -0.019718, -0.018119, -0.016521, -0.021051, -0.017853, -0.021583, -0.018919, -0.01732, -0.019452, -0.01732, -0.019985, -0.018119, -0.017853, -0.020518, -0.018119, -0.021051, -0.01732, -0.018119, -0.020251, -0.018386, -0.019985, -0.016521, -0.018386, -0.018652, -0.017054, -0.020784, -0.018119, -0.018652, -0.018919, -0.016254, -0.018119, -0.019185, -0.018386, -0.018652, -0.019452, -0.020784, -0.019985, -0.017587, -0.018119, -0.01732, -0.018119, -0.019185, -0.017054, -0.019718, -0.018919, -0.020518, -0.019185, -0.020518, -0.022649, -0.020251, -0.019185, -0.019185, -0.018386, -0.018119, -0.018652, -0.018652, -0.018652, -0.019185, -0.020784, -0.020518]"
1200,"[0.035913, -0.071826, -0.086191, -0.107739, 0.038307, -0.004788, -0.069432, -0.047884, -0.016759, -0.059855, -0.04549, -0.02873, -0.098162, -0.040701, -0.079009, -0.035913, -0.110133, 0, -0.002394, -0.086191, -0.031125, -0.031125, 0.016759, -0.021548, -0.079009, -0.009577, -0.117316, -0.040701, 0.055067, 0.033519, -0.014365, 0.038307, -0.050278, -0.002394, -0.038307, 0.023942, -0.009577, -0.019154, -0.107739, -0.038307, -0.059855, -0.04549, -0.031125, -0.016759, -0.076614, 0.007183, 0, -0.110133, -0.055067, -0.081403, -0.093374, -0.035913, -0.026336, 0.002394, -0.064643, -0.076614, -0.014365, -0.112527, -0.038307, 0.011971, -0.033519, -0.052672, 0.052672, 0.016759, -0.038307, 0, -0.043096, -0.011971, -0.110133, -0.016759, -0.019154, -0.035913, -0.021548, -0.04549, -0.055067, -0.014365, 0.007183, 0.026336, -0.047884, -0.035913, 0.079009, -0.021548, 0.040701, -0.040701, -0.081403, -0.043096, -0.031125, -0.059855, -0.076614, -0.057461, -0.031125, 0.033519, -0.102951, -0.067038, -0.002394, -0.071826, -0.047884, -0.071826, 0.011971, -0.07422, 0.004788, 0.071826, -0.093374, -0.081403, 0.026336, -0.023942, -0.079009, -0.093374, -0.021548, -0.112527, -0.04549, 0, -0.052672, -0.043096, -0.035913, 0.057461, -0.062249, 0, -0.107739, -0.011971, -0.112527, 0.019154, 0.04549, -0.033519, -0.014365, -0.057461, -0.004788, -0.067038, -0.09098, -0.002394, -0.059855, -0.052672, -0.014365, -0.04549, -0.052672, -0.009577, -0.011971, -0.079009, 0.009577, -0.014365, -0.016759, -0.122104, -0.011971, -0.07422, -0.088585, 0.002394, -0.023942, -0.052672, -0.079009, -0.004788, -0.079009, -0.009577, -0.050278, 0.014365, -0.023942, -0.088585, -0.004788, 0, -0.093374, -0.035913, 0.016759, 0.033519, -0.064643, 0.004788, -0.007183, -0.057461, -0.081403, 0.002394, -0.043096, -0.047884, 0, -0.026336, -0.007183, -0.047884, -0.016759, -0.057461, -0.095768, 0.011971, -0.026336, -0.069432, 0.004788, 0.031125, -0.04549, -0.007183, -0.035913, 0.016759, -0.126893, 0.011971, -0.02873, -0.019154, -0.033519, -0.026336, -0.038307, -0.093374, 0.031125, 0.038307, -0.026336, -0.023942, 0.134075, 0.026336, -0.004788, 0.016759, -0.050278, -0.09098, -0.011971, -0.002394, 0.021548, -0.026336, -0.011971, -0.02873, -0.033519, 0.011971, -0.019154, -0.088585, -0.035913, -0.016759, -0.016759, 0.011971, -0.07422, 0.004788, -0.064643, 0.007183, -0.019154, -0.107739, -0.105345, -0.009577, 0.004788, -0.052672, 0.011971, -0.014365, -0.059855, -0.134075, -0.002394, 0.069432, 0, -0.043096, 0.026336, -0.100556, -0.050278, -0.059855, -0.026336, -0.083797, -0.031125, -0.014365, -0.064643, -0.011971, -0.002394, -0.057461, -0.047884, 0.007183, 0.021548, -0.079009, -0.088585, -0.031125, -0.069432, -0.055067, 0.033519, -0.088585, -0.023942, -0.047884, 0.011971, -0.064643, -0.019154, 0.016759, -0.047884, -0.09098, -0.093374, -0.021548, -0.059855, 0.002394, -0.031125, -0.016759, -0.124498, 0.021548, -0.007183, -0.105345, -0.055067, -0.007183, -0.014365, -0.055067, -0.02873, -0.011971, -0.038307, -0.019154, 0.014365, 0, -0.009577, 0.052672, 0.011971, -0.059855, -0.04549, 0.033519, -0.026336, 0.021548, 0.016759, 0.026336, -0.076614, -0.059855, -0.007183, 0]","[-0.548272, -0.567426, -0.596156, -0.588974, -0.588974, -0.581791, -0.600945, -0.591368, -0.603339, -0.562637, -0.634463, -0.639252, -0.553061, -0.545878, -0.548272, -0.608127, -0.636858, -0.603339, -0.588974, -0.543484, -0.617704, -0.560243, -0.61531, -0.579397, -0.567426, -0.529119, -0.605733, -0.59855, -0.548272, -0.507571, -0.656011, -0.567426, -0.593762, -0.59855, -0.584185, -0.605733, -0.588974, -0.59855, -0.577003, -0.603339, -0.624887, -0.586579, -0.581791, -0.567426, -0.550666, -0.591368, -0.565032, -0.610521, -0.586579, -0.545878, -0.608127, -0.572214, -0.562637, -0.59855, -0.560243, -0.505177, -0.577003, -0.64404, -0.581791, -0.519542, -0.586579, -0.617704, -0.553061, -0.593762, -0.653617, -0.639252, -0.605733, -0.596156, -0.64404, -0.557849, -0.61531, -0.658405, -0.586579, -0.555455, -0.538695, -0.545878, -0.596156, -0.624887, -0.579397, -0.560243, -0.588974, -0.579397, -0.565032, -0.543484, -0.526724, -0.61531, -0.555455, -0.617704, -0.509965, -0.586579, -0.557849, -0.608127, -0.610521, -0.56982, -0.600945, -0.617704, -0.617704, -0.548272, -0.584185, -0.560243, -0.577003, -0.553061, -0.620098, -0.59855, -0.531513, -0.639252, -0.579397, -0.617704, -0.591368, -0.624887, -0.586579, -0.59855, -0.593762, -0.591368, -0.600945, -0.703895, -0.588974, -0.562637, -0.553061, -0.56982, -0.553061, -0.521936, -0.584185, -0.651223, -0.567426, -0.612916, -0.548272, -0.610521, -0.572214, -0.567426, -0.610521, -0.586579, -0.586579, -0.596156, -0.620098, -0.567426, -0.474052, -0.61531, -0.634463, -0.555455, -0.603339, -0.588974, -0.567426, -0.557849, -0.617704, -0.610521, -0.572214, -0.593762, -0.629675, -0.584185, -0.572214, -0.610521, -0.54109, -0.634463, -0.579397, -0.536301, -0.577003, -0.557849, -0.610521, -0.586579, -0.584185, -0.608127, -0.653617, -0.586579, -0.572214, -0.596156, -0.603339, -0.553061, -0.624887, -0.579397, -0.603339, -0.565032, -0.54109, -0.577003, -0.565032, -0.584185, -0.536301, -0.600945, -0.600945, -0.548272, -0.553061, -0.553061, -0.543484, -0.579397, -0.567426, -0.557849, -0.608127, -0.548272, -0.584185, -0.61531, -0.555455, -0.588974, -0.577003, -0.529119, -0.517148, -0.624887, -0.59855, -0.61531, -0.536301, -0.550666, -0.588974, -0.61531, -0.577003, -0.593762, -0.543484, -0.610521, -0.560243, -0.581791, -0.579397, -0.620098, -0.584185, -0.521936, -0.548272, -0.629675, -0.577003, -0.562637, -0.557849, -0.64404, -0.545878, -0.54109, -0.610521, -0.617704, -0.579397, -0.562637, -0.557849, -0.533907, -0.610521, -0.605733, -0.529119, -0.591368, -0.586579, -0.591368, -0.593762, -0.553061, -0.579397, -0.562637, -0.596156, -0.588974, -0.521936, -0.667982, -0.581791, -0.562637, -0.59855, -0.565032, -0.565032, -0.574608, -0.608127, -0.634463, -0.562637, -0.584185, -0.593762, -0.591368, -0.59855, -0.584185, -0.588974, -0.600945, -0.605733, -0.565032, -0.588974, -0.577003, -0.512359, -0.605733, -0.545878, -0.555455, -0.596156, -0.565032, -0.624887, -0.596156, -0.545878, -0.61531, -0.624887, -0.624887, -0.593762, -0.622492, -0.567426, -0.588974, -0.596156, -0.586579, -0.581791, -0.572214, -0.627281, -0.588974, -0.567426, -0.634463, -0.596156, -0.567426, -0.600945, -0.608127, -0.586579, -0.593762, -0.538695, -0.567426, -0.56982, -0.639252, -0.545878, -0.54109, -0.591368, -0.593762, -0.567426, -0.610521]","[9.31105, 9.375694, 9.392453, 9.279925, 9.291897, 9.385271, 9.337387, 9.366117, 9.306262, 9.3733, 9.320627, 9.318233, 9.296685, 9.356541, 9.370906, 9.334992, 9.313444, 9.344569, 9.279925, 9.272743, 9.222465, 9.258378, 9.346964, 9.318233, 9.457097, 9.244013, 9.28232, 9.315839, 9.337387, 9.296685, 9.349358, 9.334992, 9.301474, 9.287108, 9.385271, 9.325416, 9.363723, 9.306262, 9.433155, 9.41879, 9.361329, 9.437943, 9.404425, 9.334992, 9.26556, 9.363723, 9.287108, 9.382876, 9.3733, 9.306262, 9.289502, 9.375694, 9.332599, 9.325416, 9.26556, 9.363723, 9.32781, 9.363723, 9.332599, 9.332599, 9.375694, 9.306262, 9.40203, 9.318233, 9.334992, 9.270349, 9.363723, 9.246407, 9.337387, 9.342175, 9.334992, 9.255983, 9.277532, 9.382876, 9.358934, 9.303867, 9.346964, 9.363723, 9.349358, 9.28232, 9.32781, 9.28232, 9.291897, 9.330204, 9.28232, 9.275137, 9.313444, 9.210494, 9.363723, 9.28232, 9.244013, 9.397242, 9.289502, 9.313444, 9.325416, 9.40203, 9.339781, 9.325416, 9.387665, 9.385271, 9.423578, 9.325416, 9.291897, 9.361329, 9.323022, 9.306262, 9.378088, 9.287108, 9.344569, 9.332599, 9.26556, 9.370906, 9.31105, 9.334992, 9.315839, 9.306262, 9.428367, 9.411607, 9.301474, 9.318233, 9.358934, 9.356541, 9.28232, 9.318233, 9.423578, 9.411607, 9.318233, 9.366117, 9.358934, 9.212888, 9.337387, 9.346964, 9.354146, 9.239224, 9.315839, 9.272743, 9.323022, 9.296685, 9.325416, 9.375694, 9.337387, 9.26556, 9.349358, 9.315839, 9.284714, 9.296685, 9.299079, 9.234436, 9.337387, 9.399636, 9.368511, 9.349358, 9.32781, 9.358934, 9.440337, 9.387665, 9.325416, 9.363723, 9.323022, 9.390059, 9.330204, 9.296685, 9.3733, 9.349358, 9.330204, 9.380483, 9.349358, 9.306262, 9.320627, 9.334992, 9.361329, 9.334992, 9.32781, 9.294291, 9.318233, 9.251195, 9.351752, 9.385271, 9.270349, 9.325416, 9.318233, 9.356541, 9.361329, 9.361329, 9.303867, 9.349358, 9.301474, 9.363723, 9.26556, 9.354146, 9.346964, 9.390059, 9.397242, 9.363723, 9.344569, 9.337387, 9.176975, 9.229648, 9.179369, 9.165004, 9.121908, 9.246407, 9.31105, 9.229648, 9.301474, 9.210494, 9.303867, 9.277532, 9.28232, 9.294291, 9.267955, 9.358934, 9.41879, 9.375694, 9.361329, 9.363723, 9.296685, 9.411607, 9.31105, 9.382876, 9.339781, 9.313444, 9.344569, 9.255983, 9.272743, 9.313444, 9.313444, 9.390059, 9.272743, 9.318233, 9.313444, 9.366117, 9.325416, 9.299079, 9.215282, 9.291897, 9.330204, 9.32781, 9.390059, 9.284714, 9.342175, 9.40203, 9.411607, 9.411607, 9.361329, 9.31105, 9.392453, 9.346964, 9.303867, 9.315839, 9.258378, 9.358934, 9.346964, 9.26556, 9.318233, 9.320627, 9.315839, 9.255983, 9.306262, 9.291897, 9.356541, 9.337387, 9.275137, 9.397242, 9.375694, 9.380483, 9.358934, 9.366117, 9.385271, 9.31105, 9.263166, 9.306262, 9.342175, 9.382876, 9.325416, 9.289502, 9.351752, 9.361329, 9.284714, 9.433155, 9.390059, 9.337387, 9.294291, 9.306262, 9.279925, 9.358934, 9.301474, 9.323022, 9.313444, 9.28232, 9.294291, 9.414001, 9.394848, 9.375694, 9.366117, 9.435549, 9.363723, 9.318233, 9.272743, 9.325416]","[-0.007994, -0.006662, -0.006129, -0.005329, -0.007194, -0.007727, -0.006129, -0.009326, -0.007194, -0.00453, -0.006662, -0.007194, -0.007194, -0.004796, -0.009326, -0.006395, -0.006928, -0.006129, -0.006928, -0.007727, -0.00906, -0.007727, -0.007461, -0.007194, -0.00906, -0.005329, -0.006662, -0.006928, -0.007994, -0.00906, -0.007194, -0.00906, -0.007194, -0.007194, -0.007461, -0.009326, -0.005862, -0.007994, -0.006395, -0.008793, -0.009326, -0.006129, -0.007461, -0.004796, -0.00906, -0.005862, -0.008793, -0.005063, -0.006662, -0.00453, -0.007461, -0.007994, -0.007461, -0.006928, -0.007994, -0.006395, -0.009326, -0.006395, -0.00826, -0.008793, -0.006129, -0.007461, -0.005862, -0.005596, -0.00906, -0.007727, -0.007994, -0.009326, -0.005596, -0.006662, -0.007461, -0.00826, -0.006395, -0.007727, -0.006129, -0.006129, -0.008527, -0.00826, -0.006928, -0.007461, -0.006928, -0.006129, -0.010392, -0.007994, -0.007727, -0.005596, -0.007994, -0.004263, -0.006395, -0.006662, -0.005596, -0.006662, -0.006395, -0.003997, -0.005596, -0.004263, -0.006928, -0.005862, -0.007461, -0.004263, -0.005596, -0.007727, -0.005063, -0.006928, -0.009326, -0.007727, -0.006662, -0.005063, -0.005862, -0.00906, -0.005063, -0.00906, -0.008527, -0.006129, -0.007994, -0.004796, -0.010126, -0.007727, -0.007461, -0.007194, -0.010392, -0.008527, -0.007994, -0.007727, -0.007994, -0.005596, -0.00826, -0.006928, -0.006928, -0.010126, -0.009326, -0.00826, -0.007727, -0.005862, -0.005862, -0.00826, -0.005862, -0.005596, -0.010392, -0.009326, -0.008793, -0.007994, -0.005596, -0.006662, -0.006928, -0.00826, -0.006928, -0.007994, -0.00826, -0.007727, -0.006662, -0.006395, -0.007194, -0.008527, -0.007194, -0.008793, -0.008527, -0.006928, -0.007727, -0.006395, -0.007727, -0.009326, -0.00826, -0.006928, -0.007994, -0.007461, -0.009593, -0.006928, -0.006662, -0.00826, -0.00826, -0.007727, -0.005596, -0.005596, -0.006928, -0.005862, -0.008527, -0.00826, -0.007727, -0.00906, -0.007727, -0.007727, -0.006928, -0.00826, -0.007727, -0.008527, -0.006662, -0.007461, -0.00826, -0.007461, -0.007194, -0.007194, -0.006662, -0.007194, -0.006395, -0.009326, -0.007994, -0.007461, -0.006662, -0.009593, -0.007194, -0.005596, -0.005063, -0.006928, -0.007461, -0.006662, -0.006395, -0.008527, -0.004796, -0.009326, -0.008793, -0.006662, -0.008527, -0.005063, -0.007994, -0.007461, -0.007194, -0.006928, -0.006928, -0.005329, -0.005063, -0.004796, -0.003997, -0.005329, -0.007194, -0.008527, -0.007461, -0.00826, -0.006928, -0.007727, -0.007194, -0.005596, -0.007727, -0.011724, -0.00826, -0.010658, -0.009326, -0.009859, -0.005063, -0.007727, -0.009593, -0.004263, -0.007194, -0.007461, -0.007194, -0.007461, -0.008527, -0.007727, -0.005862, -0.006662, -0.007994, -0.006928, -0.003997, -0.005329, -0.009593, -0.007194, -0.009593, -0.00826, -0.007194, -0.005596, -0.00453, -0.008527, -0.005862, -0.008527, -0.006129, -0.007461, -0.004796, -0.007194, -0.008527, -0.006928, -0.006928, -0.005862, -0.005596, -0.00826, -0.007461, -0.009859, -0.005329, -0.006395, -0.007727, -0.006395, -0.007727, -0.007461, -0.006928, -0.00826, -0.006928, -0.007727, -0.007727, -0.00826, -0.005596, -0.007194, -0.007727, -0.006662, -0.007727, -0.008527, -0.00826, -0.009593, -0.006662, -0.007194, -0.010392, -0.005862]","[-0.042368, -0.041568, -0.042101, -0.042101, -0.040502, -0.043433, -0.040769, -0.041835, -0.042368, -0.041302, -0.041035, -0.041302, -0.040502, -0.041302, -0.042101, -0.041035, -0.044233, -0.041302, -0.0437, -0.042101, -0.041568, -0.041302, -0.041302, -0.042101, -0.041835, -0.039969, -0.040236, -0.042634, -0.041835, -0.043167, -0.0437, -0.040769, -0.042368, -0.043966, -0.043433, -0.039969, -0.041568, -0.041568, -0.042101, -0.043433, -0.041835, -0.041302, -0.039436, -0.043433, -0.043167, -0.043966, -0.041302, -0.042368, -0.0429, -0.041835, -0.044233, -0.0437, -0.044766, -0.043167, -0.0429, -0.042101, -0.040236, -0.0437, -0.041568, -0.042634, -0.042634, -0.043433, -0.039436, -0.042101, -0.042634, -0.044499, -0.041035, -0.040502, -0.043966, -0.044233, -0.042634, -0.044499, -0.041835, -0.044499, -0.039703, -0.042368, -0.041302, -0.041035, -0.042634, -0.041035, -0.041568, -0.042634, -0.040502, -0.042368, -0.041835, -0.041568, -0.042101, -0.041035, -0.043966, -0.043966, -0.041035, -0.043167, -0.042101, -0.041035, -0.043433, -0.044766, -0.040236, -0.0429, -0.041568, -0.0429, -0.042634, -0.041835, -0.045565, -0.043433, -0.042101, -0.040769, -0.042101, -0.043433, -0.043966, -0.041835, -0.043433, -0.043966, -0.041035, -0.042101, -0.041835, -0.042101, -0.042634, -0.045032, -0.041035, -0.042101, -0.042368, -0.043433, -0.039436, -0.040769, -0.041835, -0.041568, -0.040502, -0.041835, -0.042101, -0.042101, -0.041302, -0.040236, -0.03917, -0.041302, -0.045032, -0.039436, -0.040769, -0.042634, -0.042634, -0.045565, -0.041302, -0.044766, -0.043966, -0.042368, -0.040502, -0.043433, -0.0429, -0.041568, -0.041568, -0.042634, -0.0437, -0.0437, -0.041835, -0.041302, -0.042634, -0.042634, -0.045299, -0.040769, -0.044499, -0.040236, -0.040769, -0.044766, -0.0429, -0.041568, -0.042368, -0.03917, -0.042101, -0.040502, -0.041302, -0.042368, -0.041835, -0.041035, -0.0429, -0.042368, -0.0429, -0.0429, -0.042368, -0.041302, -0.043433, -0.042634, -0.041568, -0.040236, -0.0437, -0.039969, -0.042101, -0.041835, -0.041035, -0.043433, -0.038371, -0.041302, -0.03917, -0.044233, -0.041568, -0.041302, -0.042634, -0.038904, -0.040502, -0.038904, -0.038637, -0.040769, -0.040502, -0.044499, -0.041835, -0.041568, -0.0437, -0.042101, -0.044233, -0.041302, -0.043433, -0.043966, -0.044499, -0.044233, -0.042368, -0.041835, -0.040769, -0.042101, -0.043433, -0.043433, -0.040769, -0.043433, -0.040502, -0.040502, -0.039969, -0.040236, -0.042634, -0.038904, -0.041035, -0.045032, -0.039436, -0.043966, -0.041035, -0.042368, -0.041568, -0.039969, -0.042634, -0.0429, -0.041568, -0.042368, -0.040769, -0.0437, -0.044233, -0.042368, -0.043433, -0.039969, -0.041835, -0.040236, -0.040502, -0.042368, -0.040769, -0.043433, -0.042101, -0.044499, -0.042101, -0.038904, -0.0429, -0.044233, -0.043433, -0.041302, -0.039969, -0.039969, -0.0437, -0.042101, -0.040769, -0.043433, -0.043167, -0.042101, -0.041302, -0.044233, -0.042101, -0.0429, -0.040769, -0.044233, -0.0437, -0.040236, -0.042634, -0.041835, -0.041835, -0.042101, -0.039969, -0.041835, -0.042101, -0.043966, -0.042101, -0.038904, -0.041035, -0.041035, -0.040769, -0.042101, -0.0429, -0.041835, -0.041302, -0.042634, -0.040769, -0.045299, -0.042634, -0.041302, -0.041568, -0.038637, -0.042634, -0.041568]","[-0.020251, -0.020251, -0.017054, -0.019452, -0.021317, -0.01732, -0.019452, -0.020784, -0.017587, -0.018386, -0.017587, -0.019185, -0.01732, -0.017853, -0.018652, -0.019452, -0.021583, -0.019718, -0.018119, -0.017853, -0.020251, -0.018119, -0.020784, -0.018386, -0.018652, -0.019185, -0.020784, -0.018919, -0.018119, -0.020784, -0.018386, -0.018652, -0.018119, -0.019985, -0.018652, -0.016521, -0.019985, -0.019718, -0.020784, -0.021583, -0.020251, -0.020251, -0.020518, -0.020251, -0.022116, -0.021051, -0.018919, -0.018919, -0.018919, -0.017853, -0.018919, -0.019718, -0.018386, -0.020251, -0.017587, -0.019185, -0.020251, -0.021051, -0.020251, -0.018386, -0.018919, -0.018919, -0.019452, -0.019718, -0.019185, -0.016521, -0.021583, -0.019985, -0.021051, -0.019718, -0.018119, -0.018119, -0.020518, -0.019452, -0.018386, -0.021583, -0.022916, -0.02185, -0.020251, -0.01732, -0.02185, -0.020784, -0.019718, -0.020251, -0.019718, -0.018652, -0.021317, -0.019185, -0.018119, -0.01732, -0.019985, -0.020518, -0.018386, -0.020251, -0.020251, -0.019452, -0.016254, -0.019985, -0.019452, -0.019985, -0.018919, -0.022916, -0.018119, -0.018919, -0.019985, -0.021583, -0.018919, -0.018652, -0.02185, -0.020784, -0.019985, -0.019452, -0.018386, -0.017054, -0.018119, -0.021051, -0.018386, -0.020784, -0.018919, -0.01732, -0.018386, -0.017587, -0.018919, -0.021051, -0.018386, -0.022116, -0.019185, -0.022116, -0.019718, -0.021317, -0.018386, -0.020518, -0.019452, -0.019452, -0.019718, -0.017853, -0.021051, -0.018652, -0.019718, -0.019718, -0.019452, -0.019185, -0.018919, -0.022916, -0.017853, -0.019718, -0.02185, -0.016521, -0.021317, -0.017587, -0.019718, -0.021317, -0.019985, -0.018919, -0.022916, -0.018119, -0.017587, -0.019452, -0.018119, -0.017853, -0.020251, -0.018919, -0.019718, -0.019452, -0.020251, -0.018919, -0.019185, -0.018919, -0.018919, -0.018386, -0.020784, -0.020784, -0.021051, -0.018119, -0.021051, -0.020251, -0.018919, -0.021051, -0.019718, -0.017587, -0.018919, -0.019718, -0.019185, -0.018919, -0.021051, -0.014922, -0.019185, -0.016787, -0.018119, -0.018386, -0.019718, -0.018919, -0.021051, -0.021051, -0.020251, -0.020251, -0.019185, -0.018919, -0.017853, -0.019718, -0.019185, -0.018652, -0.01732, -0.020518, -0.018919, -0.018919, -0.017853, -0.020518, -0.018919, -0.018652, -0.018119, -0.020784, -0.017054, -0.016521, -0.019185, -0.019718, -0.021583, -0.019718, -0.020251, -0.020784, -0.019185, -0.01732, -0.021583, -0.021051, -0.018119, -0.020251, -0.018386, -0.017853, -0.020251, -0.017853, -0.019185, -0.020251, -0.019452, -0.021317, -0.018652, -0.021583, -0.01732, -0.019452, -0.018652, -0.021051, -0.018386, -0.017853, -0.021317, -0.017853, -0.018919, -0.020518, -0.018119, -0.020518, -0.019185, -0.017853, -0.018652, -0.017587, -0.018386, -0.018919, -0.020784, -0.018652, -0.021317, -0.020251, -0.022116, -0.020784, -0.017853, -0.019718, -0.022916, -0.020251, -0.019718, -0.018386, -0.021051, -0.017054, -0.017054, -0.019718, -0.019985, -0.019985, -0.018652, -0.020251, -0.020518, -0.022649, -0.022116, -0.021051, -0.017853, -0.020518, -0.02185, -0.016787, -0.018652, -0.018119, -0.02185, -0.019718, -0.017853, -0.018119, -0.018386, -0.019718, -0.018386, -0.022649, -0.021051, -0.020784, -0.02185, -0.021051, -0.019985, -0.01732, -0.019985, -0.01732]"
1204,"[-0.100556, -0.055067, -0.019154, -0.023942, -0.019154, -0.083797, 0.026336, -0.031125, -0.122104, -0.007183, -0.055067, -0.098162, -0.047884, -0.02873, 0.011971, -0.124498, -0.004788, -0.062249, -0.040701, -0.019154, -0.011971, -0.04549, -0.167594, -0.009577, 0.016759, -0.107739, -0.071826, 0.052672, -0.059855, -0.052672, -0.004788, -0.110133, -0.031125, 0.023942, 0.081403, 0.02873, -0.035913, -0.014365, -0.071826, -0.031125, 0.004788, -0.02873, -0.035913, -0.014365, -0.026336, 0.019154, -0.069432, -0.035913, -0.014365, -0.009577, -0.064643, 0.019154, -0.043096, -0.134075, -0.026336, 0.014365, -0.050278, -0.093374, 0.038307, -0.014365, -0.007183, -0.040701, -0.038307, -0.050278, -0.043096, 0.016759, -0.019154, -0.057461, 0.009577, -0.021548, -0.059855, -0.021548, -0.02873, 0.011971, -0.102951, -0.035913, 0.033519, -0.033519, -0.009577, 0.033519, 0.014365, -0.023942, -0.009577, -0.095768, 0.011971, -0.002394, 0, -0.098162, -0.026336, -0.055067, -0.02873, -0.071826, 0.014365, 0.033519, -0.050278, -0.055067, -0.011971, -0.100556, -0.035913, 0, 0.031125, -0.02873, -0.016759, 0.004788, 0.016759, -0.052672, 0.009577, -0.081403, -0.02873, 0.086191, -0.004788, -0.02873, -0.019154, -0.040701, -0.026336, -0.055067, -0.040701, 0.031125, -0.064643, 0.002394, -0.014365, 0, -0.110133, -0.081403, 0.04549, -0.052672, -0.021548, -0.035913, 0.019154, -0.100556, -0.021548, -0.011971, -0.023942, -0.023942, 0.004788, -0.059855, -0.033519, 0.033519, -0.062249, -0.040701, -0.021548, 0.033519, -0.050278, -0.047884, -0.004788, -0.033519, -0.033519, 0.016759, 0.062249, -0.047884, -0.098162, -0.004788, -0.088585, -0.059855, -0.014365, 0.040701, -0.093374, -0.011971, 0.016759, -0.086191, -0.122104, 0.009577, -0.019154, -0.076614, -0.062249, 0.004788, -0.016759, -0.088585, 0.055067, 0.002394, -0.093374, 0.019154, 0.031125, -0.110133, -0.062249, 0.043096, 0.050278, -0.059855, -0.047884, -0.079009, -0.014365, -0.031125, -0.071826, 0.035913, 0.014365, -0.088585, -0.011971, 0.009577, -0.110133, -0.02873, 0.035913, -0.033519, -0.071826, 0, -0.064643, -0.100556, -0.02873, -0.009577, -0.014365, -0.064643, -0.035913, -0.052672, -0.011971, -0.019154, -0.038307, -0.093374, -0.023942, 0.047884, -0.057461, -0.062249, 0.09098, 0.004788, -0.081403, -0.009577, 0.035913, -0.067038, -0.069432, 0.019154, 0.004788, -0.059855, -0.014365, 0.007183, -0.076614, -0.081403, -0.014365, -0.040701, -0.105345, -0.021548, -0.009577, -0.112527, 0.047884, -0.038307, -0.033519, -0.050278, 0.02873, 0.011971, -0.102951, -0.021548, 0.021548, -0.055067, -0.079009, 0, -0.04549, -0.033519, -0.047884, -0.064643, -0.079009, -0.043096, -0.079009, -0.007183, -0.098162, -0.02873, 0.021548, -0.02873, -0.107739, -0.052672, -0.021548, -0.059855, -0.081403, -0.04549, -0.047884, -0.043096, -0.019154, 0.023942, -0.117316, -0.047884, 0.088585, -0.040701, -0.023942, 0.019154, 0.002394, -0.067038, 0.019154, -0.016759, -0.031125, -0.019154, -0.002394, 0.052672, -0.062249, 0.007183, -0.031125, -0.043096, -0.019154, -0.040701, 0.019154, -0.016759, -0.011971, -0.021548, -0.040701, -0.002394, -0.004788, -0.035913, -0.062249, -0.026336, -0.057461, -0.011971, -0.004788, -0.057461, -0.050278, -0.043096]","[-0.574608, -0.577003, -0.591368, -0.584185, -0.574608, -0.632069, -0.593762, -0.536301, -0.610521, -0.629675, -0.555455, -0.610521, -0.634463, -0.565032, -0.553061, -0.555455, -0.519542, -0.550666, -0.612916, -0.586579, -0.553061, -0.612916, -0.531513, -0.610521, -0.545878, -0.596156, -0.586579, -0.610521, -0.596156, -0.596156, -0.577003, -0.667982, -0.531513, -0.610521, -0.612916, -0.52433, -0.586579, -0.550666, -0.481235, -0.600945, -0.596156, -0.553061, -0.629675, -0.533907, -0.61531, -0.548272, -0.581791, -0.574608, -0.581791, -0.632069, -0.56982, -0.605733, -0.577003, -0.600945, -0.593762, -0.555455, -0.543484, -0.617704, -0.591368, -0.548272, -0.538695, -0.624887, -0.584185, -0.543484, -0.579397, -0.519542, -0.629675, -0.574608, -0.536301, -0.553061, -0.531513, -0.584185, -0.591368, -0.565032, -0.600945, -0.588974, -0.608127, -0.59855, -0.605733, -0.538695, -0.562637, -0.617704, -0.593762, -0.579397, -0.636858, -0.588974, -0.557849, -0.622492, -0.617704, -0.577003, -0.565032, -0.567426, -0.600945, -0.603339, -0.600945, -0.562637, -0.610521, -0.61531, -0.588974, -0.514753, -0.634463, -0.56982, -0.574608, -0.591368, -0.61531, -0.548272, -0.574608, -0.56982, -0.605733, -0.565032, -0.586579, -0.622492, -0.577003, -0.579397, -0.577003, -0.61531, -0.526724, -0.557849, -0.586579, -0.579397, -0.603339, -0.603339, -0.610521, -0.529119, -0.56982, -0.629675, -0.61531, -0.586579, -0.545878, -0.593762, -0.622492, -0.639252, -0.588974, -0.553061, -0.586579, -0.605733, -0.577003, -0.555455, -0.617704, -0.59855, -0.577003, -0.596156, -0.59855, -0.560243, -0.565032, -0.586579, -0.584185, -0.565032, -0.593762, -0.572214, -0.562637, -0.565032, -0.651223, -0.574608, -0.622492, -0.646434, -0.584185, -0.64404, -0.596156, -0.593762, -0.557849, -0.605733, -0.565032, -0.610521, -0.612916, -0.632069, -0.56982, -0.577003, -0.553061, -0.533907, -0.596156, -0.612916, -0.579397, -0.567426, -0.636858, -0.538695, -0.581791, -0.632069, -0.545878, -0.555455, -0.572214, -0.56982, -0.579397, -0.550666, -0.627281, -0.588974, -0.581791, -0.596156, -0.572214, -0.593762, -0.584185, -0.59855, -0.608127, -0.538695, -0.565032, -0.581791, -0.572214, -0.555455, -0.588974, -0.605733, -0.531513, -0.629675, -0.574608, -0.588974, -0.521936, -0.629675, -0.560243, -0.610521, -0.538695, -0.555455, -0.608127, -0.617704, -0.567426, -0.64404, -0.553061, -0.612916, -0.608127, -0.572214, -0.600945, -0.64404, -0.593762, -0.634463, -0.593762, -0.545878, -0.610521, -0.548272, -0.581791, -0.562637, -0.608127, -0.612916, -0.610521, -0.548272, -0.588974, -0.59855, -0.545878, -0.574608, -0.593762, -0.593762, -0.562637, -0.588974, -0.577003, -0.612916, -0.593762, -0.560243, -0.603339, -0.622492, -0.567426, -0.586579, -0.56982, -0.562637, -0.581791, -0.543484, -0.555455, -0.560243, -0.639252, -0.545878, -0.617704, -0.572214, -0.54109, -0.548272, -0.579397, -0.567426, -0.548272, -0.603339, -0.54109, -0.588974, -0.574608, -0.577003, -0.588974, -0.543484, -0.550666, -0.608127, -0.560243, -0.54109, -0.624887, -0.61531, -0.581791, -0.59855, -0.545878, -0.627281, -0.584185, -0.581791, -0.557849, -0.61531, -0.617704, -0.603339, -0.567426, -0.617704, -0.560243, -0.608127, -0.560243, -0.596156, -0.596156, -0.52433, -0.605733, -0.56982, -0.596156, -0.586579, -0.620098, -0.521936]","[9.437943, 9.232041, 9.284714, 9.308656, 9.411607, 9.306262, 9.277532, 9.387665, 9.294291, 9.279925, 9.313444, 9.349358, 9.370906, 9.294291, 9.258378, 9.32781, 9.342175, 9.354146, 9.279925, 9.275137, 9.313444, 9.409213, 9.385271, 9.332599, 9.303867, 9.224859, 9.287108, 9.28232, 9.248801, 9.32781, 9.289502, 9.361329, 9.306262, 9.275137, 9.378088, 9.255983, 9.344569, 9.289502, 9.361329, 9.378088, 9.337387, 9.370906, 9.394848, 9.378088, 9.361329, 9.26556, 9.308656, 9.303867, 9.299079, 9.411607, 9.205706, 9.404425, 9.277532, 9.356541, 9.251195, 9.375694, 9.303867, 9.320627, 9.368511, 9.385271, 9.40203, 9.263166, 9.306262, 9.363723, 9.308656, 9.277532, 9.351752, 9.346964, 9.40203, 9.279925, 9.387665, 9.299079, 9.320627, 9.3733, 9.294291, 9.414001, 9.315839, 9.337387, 9.339781, 9.344569, 9.260772, 9.32781, 9.339781, 9.301474, 9.368511, 9.339781, 9.303867, 9.349358, 9.330204, 9.375694, 9.279925, 9.361329, 9.40203, 9.32781, 9.358934, 9.435549, 9.267955, 9.320627, 9.303867, 9.279925, 9.378088, 9.380483, 9.287108, 9.342175, 9.358934, 9.349358, 9.31105, 9.232041, 9.26556, 9.313444, 9.40203, 9.222465, 9.370906, 9.306262, 9.31105, 9.279925, 9.342175, 9.303867, 9.382876, 9.330204, 9.363723, 9.428367, 9.337387, 9.370906, 9.378088, 9.368511, 9.387665, 9.370906, 9.25359, 9.40203, 9.363723, 9.28232, 9.334992, 9.346964, 9.392453, 9.378088, 9.397242, 9.272743, 9.337387, 9.366117, 9.301474, 9.390059, 9.344569, 9.368511, 9.337387, 9.32781, 9.303867, 9.368511, 9.337387, 9.404425, 9.31105, 9.375694, 9.358934, 9.296685, 9.323022, 9.337387, 9.358934, 9.272743, 9.272743, 9.26556, 9.308656, 9.299079, 9.255983, 9.363723, 9.356541, 9.325416, 9.349358, 9.354146, 9.320627, 9.258378, 9.346964, 9.349358, 9.351752, 9.277532, 9.248801, 9.428367, 9.435549, 9.275137, 9.284714, 9.272743, 9.318233, 9.409213, 9.318233, 9.404425, 9.378088, 9.303867, 9.356541, 9.356541, 9.299079, 9.344569, 9.318233, 9.315839, 9.332599, 9.289502, 9.363723, 9.356541, 9.234436, 9.31105, 9.308656, 9.244013, 9.270349, 9.260772, 9.198523, 9.318233, 9.368511, 9.41879, 9.313444, 9.325416, 9.354146, 9.315839, 9.351752, 9.318233, 9.32781, 9.330204, 9.32781, 9.294291, 9.394848, 9.315839, 9.303867, 9.260772, 9.224859, 9.28232, 9.358934, 9.378088, 9.323022, 9.246407, 9.433155, 9.387665, 9.337387, 9.409213, 9.406818, 9.368511, 9.32781, 9.378088, 9.323022, 9.330204, 9.279925, 9.380483, 9.344569, 9.279925, 9.344569, 9.361329, 9.425972, 9.330204, 9.28232, 9.330204, 9.272743, 9.330204, 9.279925, 9.346964, 9.382876, 9.349358, 9.366117, 9.308656, 9.394848, 9.284714, 9.284714, 9.351752, 9.354146, 9.299079, 9.356541, 9.404425, 9.244013, 9.308656, 9.375694, 9.337387, 9.267955, 9.267955, 9.313444, 9.294291, 9.275137, 9.325416, 9.351752, 9.385271, 9.349358, 9.390059, 9.299079, 9.368511, 9.354146, 9.337387, 9.370906, 9.349358, 9.361329, 9.344569, 9.41879, 9.382876, 9.277532, 9.279925, 9.339781, 9.378088, 9.323022, 9.325416, 9.303867, 9.387665, 9.375694, 9.351752, 9.416395, 9.31105, 9.315839, 9.41879]","[-0.005063, -0.006129, -0.00826, -0.006928, -0.00826, -0.008527, -0.009859, -0.005596, -0.006928, -0.006662, -0.00906, -0.005063, -0.003997, -0.006928, -0.006129, -0.008527, -0.00373, -0.005862, -0.00826, -0.007994, -0.006395, -0.007461, -0.005063, -0.005596, -0.010658, -0.007194, -0.008793, -0.005063, -0.006928, -0.006395, -0.008793, -0.007194, -0.006129, -0.006129, -0.005329, -0.007461, -0.007461, -0.005862, -0.008527, -0.005862, -0.004796, -0.00826, -0.005862, -0.00373, -0.007194, -0.009326, -0.007461, -0.006662, -0.006395, -0.007461, -0.009326, -0.009326, -0.007727, -0.008527, -0.006928, -0.007994, -0.006395, -0.00826, -0.006129, -0.006662, -0.006395, -0.006129, -0.005329, -0.005862, -0.006928, -0.008793, -0.006928, -0.00826, -0.007461, -0.006928, -0.009326, -0.00826, -0.007461, -0.00453, -0.006129, -0.006662, -0.006662, -0.007994, -0.006395, -0.007727, -0.009326, -0.010126, -0.009859, -0.006928, -0.007994, -0.009859, -0.006928, -0.004796, -0.006395, -0.009859, -0.006928, -0.007194, -0.006395, -0.006129, -0.006928, -0.004796, -0.006928, -0.006928, -0.005862, -0.007727, -0.007194, -0.007194, -0.006129, -0.008793, -0.006662, -0.006928, -0.005596, -0.007194, -0.005596, -0.006395, -0.007194, -0.005596, -0.006662, -0.008793, -0.006928, -0.009859, -0.006662, -0.006662, -0.005862, -0.007727, -0.005329, -0.007461, -0.008527, -0.007727, -0.007461, -0.005862, -0.00826, -0.005596, -0.006928, -0.009326, -0.006928, -0.007461, -0.005596, -0.006662, -0.004796, -0.008527, -0.005862, -0.006928, -0.007727, -0.006662, -0.007194, -0.00906, -0.005862, -0.009593, -0.007461, -0.005862, -0.00826, -0.00826, -0.005862, -0.006662, -0.006662, -0.005329, -0.006662, -0.00826, -0.006662, -0.005329, -0.006395, -0.007994, -0.007194, -0.007994, -0.006928, -0.00826, -0.007994, -0.006928, -0.00826, -0.006395, -0.007994, -0.007727, -0.007461, -0.005329, -0.007461, -0.007727, -0.008527, -0.00826, -0.006662, -0.006928, -0.010392, -0.006662, -0.006928, -0.007994, -0.006662, -0.007727, -0.008527, -0.00826, -0.007727, -0.00826, -0.007994, -0.008527, -0.007461, -0.009326, -0.006928, -0.006662, -0.009859, -0.00373, -0.00826, -0.006928, -0.007194, -0.00826, -0.005063, -0.007194, -0.005329, -0.00826, -0.007194, -0.007194, -0.005329, -0.007194, -0.007727, -0.007461, -0.00453, -0.006928, -0.007194, -0.007461, -0.007194, -0.00826, -0.005329, -0.007461, -0.007194, -0.00826, -0.009859, -0.007994, -0.007994, -0.004796, -0.005596, -0.007994, -0.00826, -0.005862, -0.006928, -0.00826, -0.007194, -0.005329, -0.005862, -0.004263, -0.006129, -0.009859, -0.00826, -0.007194, -0.007461, -0.005862, -0.006129, -0.007727, -0.008527, -0.007194, -0.008527, -0.007994, -0.006129, -0.00906, -0.007461, -0.005596, -0.006928, -0.007461, -0.00906, -0.006129, -0.008793, -0.007461, -0.005329, -0.005596, -0.006928, -0.008527, -0.008527, -0.007994, -0.009593, -0.007194, -0.007994, -0.006662, -0.006662, -0.006395, -0.007461, -0.006129, -0.006662, -0.007727, -0.007727, -0.00826, -0.006662, -0.006129, -0.006129, -0.004796, -0.005329, -0.007194, -0.006129, -0.00826, -0.006395, -0.008527, -0.006662, -0.006395, -0.009326, -0.007461, -0.007727, -0.007727, -0.006129, -0.005596, -0.007727, -0.00906, -0.005329, -0.007461, -0.00906, -0.00826, -0.008527, -0.007461, -0.003997, -0.004796]","[-0.041302, -0.041035, -0.042368, -0.042101, -0.043433, -0.041568, -0.043966, -0.040236, -0.042368, -0.042634, -0.042368, -0.041835, -0.0429, -0.038371, -0.042634, -0.042368, -0.041835, -0.043167, -0.044233, -0.042368, -0.041568, -0.040236, -0.042634, -0.042368, -0.043966, -0.040502, -0.043433, -0.043167, -0.041835, -0.040769, -0.042634, -0.0429, -0.041568, -0.041835, -0.040502, -0.043433, -0.041302, -0.042368, -0.040236, -0.042368, -0.041035, -0.044499, -0.041302, -0.040769, -0.043966, -0.044499, -0.041035, -0.041035, -0.043433, -0.042634, -0.044233, -0.041035, -0.0429, -0.041835, -0.041035, -0.042101, -0.041835, -0.042368, -0.042101, -0.0437, -0.042101, -0.041835, -0.040769, -0.042634, -0.042634, -0.042101, -0.042368, -0.043433, -0.039969, -0.043433, -0.041035, -0.045299, -0.041302, -0.041568, -0.042634, -0.0437, -0.0429, -0.041302, -0.040236, -0.044233, -0.041035, -0.0437, -0.039969, -0.041835, -0.043966, -0.039703, -0.042368, -0.039969, -0.041835, -0.041035, -0.041302, -0.041568, -0.040769, -0.043433, -0.043966, -0.0429, -0.043966, -0.043966, -0.042101, -0.041035, -0.044766, -0.041035, -0.040502, -0.042368, -0.044766, -0.040769, -0.042368, -0.043433, -0.042101, -0.042101, -0.045032, -0.041302, -0.043167, -0.041835, -0.041835, -0.041835, -0.0437, -0.043433, -0.042368, -0.043966, -0.042101, -0.041568, -0.042101, -0.039969, -0.040236, -0.041835, -0.042634, -0.043966, -0.041568, -0.042101, -0.041835, -0.044233, -0.041302, -0.041568, -0.040769, -0.040769, -0.043966, -0.039969, -0.041835, -0.040502, -0.041035, -0.0429, -0.045832, -0.043966, -0.042101, -0.043433, -0.039436, -0.043167, -0.042101, -0.0429, -0.040236, -0.042101, -0.039703, -0.0429, -0.042368, -0.0429, -0.044499, -0.041568, -0.042101, -0.041035, -0.041035, -0.042634, -0.041835, -0.044766, -0.0429, -0.043966, -0.041035, -0.041302, -0.043433, -0.0437, -0.042634, -0.042368, -0.040769, -0.041568, -0.039703, -0.045565, -0.041835, -0.0429, -0.041302, -0.043167, -0.040769, -0.0437, -0.041568, -0.040502, -0.041035, -0.043433, -0.041835, -0.042101, -0.041835, -0.03917, -0.0437, -0.040502, -0.042634, -0.039436, -0.042101, -0.041302, -0.040769, -0.043433, -0.040502, -0.042634, -0.044233, -0.040502, -0.039969, -0.03917, -0.043966, -0.043167, -0.042634, -0.043167, -0.042634, -0.040769, -0.041835, -0.039703, -0.041568, -0.0437, -0.040236, -0.042368, -0.042101, -0.041835, -0.040769, -0.043433, -0.039703, -0.042101, -0.043433, -0.041035, -0.042634, -0.042634, -0.041835, -0.040769, -0.0429, -0.040502, -0.043167, -0.040769, -0.042101, -0.043167, -0.039703, -0.041035, -0.0437, -0.042368, -0.03917, -0.041835, -0.038371, -0.0429, -0.041568, -0.040769, -0.0437, -0.042368, -0.041835, -0.041568, -0.042634, -0.041302, -0.0429, -0.038371, -0.044499, -0.041568, -0.0437, -0.039703, -0.042634, -0.042634, -0.038371, -0.041035, -0.037838, -0.042634, -0.045565, -0.0429, -0.042101, -0.0429, -0.041302, -0.044233, -0.041835, -0.042101, -0.042634, -0.039703, -0.040236, -0.043167, -0.042101, -0.041568, -0.040769, -0.041568, -0.040236, -0.043966, -0.042101, -0.041835, -0.040502, -0.041035, -0.0437, -0.040502, -0.0429, -0.044766, -0.040769, -0.044766, -0.043167, -0.040769, -0.041835, -0.041568, -0.042368, -0.042368, -0.042634, -0.045032, -0.041835, -0.0437]","[-0.020784, -0.018652, -0.021051, -0.018119, -0.018919, -0.016787, -0.019452, -0.017853, -0.02185, -0.019452, -0.019985, -0.019985, -0.021317, -0.023182, -0.019718, -0.019185, -0.019718, -0.021317, -0.019985, -0.018386, -0.021317, -0.019718, -0.016521, -0.019185, -0.019985, -0.018119, -0.021317, -0.020518, -0.019185, -0.020518, -0.021317, -0.021051, -0.020784, -0.017054, -0.019185, -0.019185, -0.022383, -0.019718, -0.021051, -0.020518, -0.021317, -0.019185, -0.021583, -0.016254, -0.020784, -0.019718, -0.017853, -0.019718, -0.018652, -0.01732, -0.019985, -0.016787, -0.018386, -0.017054, -0.019985, -0.016254, -0.017587, -0.017587, -0.018652, -0.020251, -0.021051, -0.018919, -0.018652, -0.021583, -0.01732, -0.019185, -0.019718, -0.018919, -0.019985, -0.018652, -0.021583, -0.017054, -0.021583, -0.019985, -0.021051, -0.018119, -0.021583, -0.018119, -0.020784, -0.020251, -0.01732, -0.021051, -0.018119, -0.019718, -0.019452, -0.020518, -0.017587, -0.022916, -0.019185, -0.020784, -0.018919, -0.019185, -0.017587, -0.019985, -0.015721, -0.020784, -0.020251, -0.020251, -0.019718, -0.019452, -0.018386, -0.016787, -0.017054, -0.019985, -0.018119, -0.020251, -0.020251, -0.021583, -0.018919, -0.018919, -0.017054, -0.016787, -0.018119, -0.017587, -0.022649, -0.018919, -0.019452, -0.019185, -0.018386, -0.020251, -0.018919, -0.020784, -0.017587, -0.018119, -0.021051, -0.018652, -0.018919, -0.021583, -0.019718, -0.018919, -0.02185, -0.018386, -0.022649, -0.019985, -0.019985, -0.020251, -0.018119, -0.020784, -0.019185, -0.018386, -0.020518, -0.019185, -0.019185, -0.019185, -0.018652, -0.018919, -0.019185, -0.018652, -0.018919, -0.018919, -0.022916, -0.019185, -0.01732, -0.019185, -0.021051, -0.019985, -0.019452, -0.017853, -0.020518, -0.018386, -0.019185, -0.017587, -0.021051, -0.020518, -0.020784, -0.019985, -0.019185, -0.019452, -0.019985, -0.019452, -0.020518, -0.019718, -0.022383, -0.023715, -0.019185, -0.018919, -0.023182, -0.020518, -0.020784, -0.019985, -0.019452, -0.018652, -0.018919, -0.021317, -0.02185, -0.020784, -0.022116, -0.020518, -0.020518, -0.017587, -0.022116, -0.018919, -0.019452, -0.015455, -0.020784, -0.018386, -0.019452, -0.020784, -0.015721, -0.019185, -0.020251, -0.021583, -0.015721, -0.018652, -0.021317, -0.022383, -0.016521, -0.020518, -0.018119, -0.018386, -0.018919, -0.021317, -0.021317, -0.016787, -0.021051, -0.019185, -0.019985, -0.020518, -0.019185, -0.017853, -0.019718, -0.019185, -0.022649, -0.020784, -0.019718, -0.019985, -0.019452, -0.021051, -0.017853, -0.018119, -0.021051, -0.019185, -0.021051, -0.018652, -0.018386, -0.01732, -0.018652, -0.020518, -0.019985, -0.018919, -0.018652, -0.017853, -0.021583, -0.020518, -0.022649, -0.021051, -0.019452, -0.021317, -0.019185, -0.019452, -0.020251, -0.017853, -0.017853, -0.01732, -0.021051, -0.017587, -0.019185, -0.019985, -0.022116, -0.014655, -0.021051, -0.018386, -0.02185, -0.019185, -0.021051, -0.017853, -0.017853, -0.018386, -0.018119, -0.022116, -0.018386, -0.019718, -0.019452, -0.017587, -0.020518, -0.016521, -0.019718, -0.018119, -0.018386, -0.019452, -0.020251, -0.019452, -0.019985, -0.015721, -0.020251, -0.018652, -0.018386, -0.019985, -0.018652, -0.020251, -0.020251, -0.018119, -0.019718, -0.017054, -0.019185, -0.019452, -0.018119, -0.019985, -0.017587, -0.017853]"
1209,"[0.009577, 0.002394, -0.067038, 0.031125, -0.081403, 0.002394, 0.02873, -0.124498, -0.011971, 0.021548, -0.059855, -0.086191, -0.033519, -0.023942, -0.019154, -0.026336, -0.038307, -0.011971, -0.081403, -0.023942, -0.086191, -0.064643, -0.07422, 0.019154, -0.040701, -0.105345, -0.023942, -0.035913, -0.050278, -0.009577, -0.016759, -0.059855, -0.105345, 0.026336, -0.088585, -0.004788, -0.086191, -0.035913, -0.076614, -0.021548, -0.009577, -0.04549, 0.021548, -0.026336, -0.035913, 0.019154, 0.002394, -0.004788, -0.021548, -0.064643, -0.007183, -0.062249, -0.035913, -0.014365, -0.007183, -0.047884, -0.105345, -0.031125, -0.076614, -0.076614, 0.040701, -0.047884, -0.088585, 0.038307, -0.007183, -0.055067, -0.067038, -0.081403, 0.002394, -0.026336, -0.019154, 0.021548, 0.011971, -0.023942, -0.055067, 0.04549, -0.067038, -0.02873, -0.014365, -0.071826, -0.117316, -0.009577, 0.02873, -0.043096, 0.004788, 0.038307, -0.04549, -0.033519, -0.021548, 0.019154, -0.076614, -0.09098, -0.007183, -0.088585, -0.105345, 0.004788, -0.035913, -0.076614, -0.007183, 0.043096, -0.047884, -0.026336, 0.019154, -0.069432, -0.007183, -0.031125, -0.011971, -0.136469, -0.052672, -0.052672, -0.07422, -0.055067, -0.04549, -0.002394, 0.002394, -0.019154, -0.016759, -0.002394, -0.067038, 0.002394, 0.040701, -0.031125, -0.004788, -0.088585, -0.007183, -0.071826, -0.076614, -0.064643, 0, -0.019154, -0.026336, -0.009577, -0.031125, 0.007183, -0.047884, -0.035913, 0.014365, -0.047884, -0.071826, -0.062249, -0.007183, -0.031125, -0.09098, -0.014365, 0.002394, -0.086191, -0.04549, 0.011971, -0.016759, -0.062249, -0.071826, -0.040701, -0.007183, 0.016759, -0.035913, -0.057461, -0.038307, 0.016759, -0.031125, -0.019154, -0.076614, 0.009577, -0.031125, -0.02873, 0.035913, 0.004788, -0.088585, 0.019154, 0.023942, -0.023942, -0.040701, 0.088585, -0.014365, -0.083797, -0.04549, -0.004788, -0.019154, -0.007183, 0.040701, -0.033519, -0.088585, -0.023942, 0.040701, -0.062249, -0.004788, -0.026336, 0.016759, -0.126893, -0.038307, -0.035913, -0.033519, -0.002394, 0.04549, -0.069432, -0.069432, -0.004788, -0.02873, -0.035913, -0.019154, 0.007183, 0.021548, -0.047884, -0.004788, -0.026336, -0.088585, -0.047884, 0.047884, -0.040701, -0.035913, 0.014365, -0.04549, -0.098162, -0.064643, 0.026336, -0.040701, -0.055067, -0.023942, 0, -0.131681, 0.033519, -0.007183, -0.064643, -0.069432, -0.002394, 0, -0.035913, 0, 0.031125, -0.023942, -0.038307, -0.023942, 0.062249, -0.069432, -0.023942, 0.016759, -0.062249, -0.004788, -0.023942, -0.076614, -0.033519, -0.023942, -0.035913, -0.057461, 0.002394, 0, -0.04549, 0.004788, -0.040701, -0.064643, -0.033519, -0.016759, -0.088585, -0.04549, -0.007183, -0.007183, -0.047884, -0.02873, -0.047884, 0.004788, -0.047884, -0.035913, 0.004788, -0.079009, -0.02873, -0.062249, 0, -0.047884, 0.011971, -0.069432, -0.04549, -0.055067, 0.007183, 0.009577, -0.031125, 0.007183, -0.095768, 0.009577, 0.007183, -0.035913, -0.086191, -0.052672, 0.011971, -0.055067, -0.007183, 0.033519, -0.07422, -0.035913, -0.047884, -0.011971, -0.023942, 0.007183, 0.011971, -0.035913, -0.138864, -0.004788, -0.026336, -0.11971, -0.071826, 0.050278, -0.102951]","[-0.665588, -0.579397, -0.610521, -0.562637, -0.553061, -0.586579, -0.593762, -0.603339, -0.567426, -0.553061, -0.533907, -0.629675, -0.584185, -0.596156, -0.548272, -0.548272, -0.533907, -0.605733, -0.574608, -0.588974, -0.596156, -0.641646, -0.555455, -0.584185, -0.567426, -0.620098, -0.61531, -0.533907, -0.603339, -0.557849, -0.591368, -0.572214, -0.553061, -0.560243, -0.677559, -0.538695, -0.61531, -0.603339, -0.562637, -0.565032, -0.533907, -0.588974, -0.620098, -0.577003, -0.586579, -0.56982, -0.565032, -0.548272, -0.574608, -0.531513, -0.536301, -0.557849, -0.577003, -0.608127, -0.531513, -0.52433, -0.605733, -0.620098, -0.557849, -0.521936, -0.593762, -0.610521, -0.61531, -0.565032, -0.526724, -0.632069, -0.577003, -0.557849, -0.608127, -0.565032, -0.624887, -0.56982, -0.581791, -0.608127, -0.584185, -0.581791, -0.639252, -0.584185, -0.591368, -0.591368, -0.588974, -0.584185, -0.581791, -0.600945, -0.596156, -0.56982, -0.565032, -0.557849, -0.52433, -0.560243, -0.634463, -0.617704, -0.543484, -0.538695, -0.624887, -0.577003, -0.584185, -0.612916, -0.562637, -0.536301, -0.593762, -0.629675, -0.596156, -0.588974, -0.56982, -0.581791, -0.548272, -0.567426, -0.59855, -0.565032, -0.612916, -0.620098, -0.536301, -0.622492, -0.627281, -0.550666, -0.577003, -0.605733, -0.617704, -0.591368, -0.610521, -0.61531, -0.591368, -0.584185, -0.584185, -0.603339, -0.603339, -0.620098, -0.577003, -0.565032, -0.617704, -0.59855, -0.533907, -0.574608, -0.605733, -0.617704, -0.572214, -0.605733, -0.605733, -0.52433, -0.610521, -0.581791, -0.600945, -0.548272, -0.584185, -0.572214, -0.603339, -0.577003, -0.617704, -0.617704, -0.627281, -0.565032, -0.593762, -0.581791, -0.533907, -0.620098, -0.617704, -0.577003, -0.533907, -0.567426, -0.538695, -0.588974, -0.588974, -0.579397, -0.545878, -0.639252, -0.64404, -0.572214, -0.586579, -0.584185, -0.639252, -0.548272, -0.579397, -0.634463, -0.533907, -0.610521, -0.596156, -0.593762, -0.526724, -0.620098, -0.579397, -0.648829, -0.59855, -0.620098, -0.533907, -0.596156, -0.605733, -0.59855, -0.538695, -0.565032, -0.656011, -0.59855, -0.59855, -0.656011, -0.603339, -0.562637, -0.557849, -0.567426, -0.617704, -0.567426, -0.641646, -0.560243, -0.610521, -0.603339, -0.572214, -0.545878, -0.588974, -0.608127, -0.562637, -0.596156, -0.639252, -0.605733, -0.603339, -0.565032, -0.608127, -0.658405, -0.548272, -0.605733, -0.610521, -0.560243, -0.545878, -0.646434, -0.538695, -0.560243, -0.555455, -0.579397, -0.577003, -0.553061, -0.624887, -0.56982, -0.550666, -0.579397, -0.605733, -0.61531, -0.600945, -0.586579, -0.574608, -0.600945, -0.574608, -0.521936, -0.59855, -0.59855, -0.59855, -0.620098, -0.577003, -0.555455, -0.560243, -0.624887, -0.577003, -0.59855, -0.577003, -0.608127, -0.603339, -0.56982, -0.608127, -0.581791, -0.555455, -0.641646, -0.59855, -0.59855, -0.548272, -0.634463, -0.629675, -0.622492, -0.565032, -0.591368, -0.574608, -0.584185, -0.617704, -0.612916, -0.608127, -0.584185, -0.572214, -0.591368, -0.624887, -0.586579, -0.591368, -0.581791, -0.596156, -0.550666, -0.579397, -0.579397, -0.596156, -0.538695, -0.581791, -0.603339, -0.548272, -0.581791, -0.514753, -0.591368, -0.612916, -0.588974, -0.605733, -0.605733, -0.584185, -0.603339, -0.591368, -0.572214, -0.565032, -0.605733]","[9.325416, 9.277532, 9.406818, 9.32781, 9.25359, 9.241618, 9.370906, 9.414001, 9.40203, 9.296685, 9.337387, 9.31105, 9.306262, 9.387665, 9.289502, 9.481039, 9.349358, 9.289502, 9.325416, 9.339781, 9.330204, 9.31105, 9.287108, 9.303867, 9.318233, 9.318233, 9.394848, 9.370906, 9.303867, 9.32781, 9.330204, 9.234436, 9.346964, 9.363723, 9.303867, 9.25359, 9.332599, 9.323022, 9.346964, 9.334992, 9.41879, 9.31105, 9.31105, 9.344569, 9.361329, 9.358934, 9.378088, 9.339781, 9.361329, 9.346964, 9.277532, 9.272743, 9.339781, 9.315839, 9.40203, 9.320627, 9.308656, 9.332599, 9.3733, 9.32781, 9.289502, 9.366117, 9.294291, 9.390059, 9.394848, 9.392453, 9.394848, 9.421184, 9.378088, 9.251195, 9.296685, 9.370906, 9.229648, 9.3733, 9.361329, 9.390059, 9.334992, 9.349358, 9.40203, 9.31105, 9.342175, 9.437943, 9.284714, 9.409213, 9.323022, 9.330204, 9.325416, 9.392453, 9.325416, 9.313444, 9.296685, 9.346964, 9.406818, 9.248801, 9.466674, 9.449914, 9.332599, 9.411607, 9.323022, 9.31105, 9.375694, 9.342175, 9.349358, 9.296685, 9.32781, 9.370906, 9.421184, 9.375694, 9.258378, 9.299079, 9.337387, 9.363723, 9.318233, 9.361329, 9.382876, 9.334992, 9.318233, 9.299079, 9.339781, 9.382876, 9.222465, 9.370906, 9.425972, 9.43076, 9.387665, 9.318233, 9.349358, 9.411607, 9.308656, 9.363723, 9.287108, 9.351752, 9.378088, 9.28232, 9.287108, 9.315839, 9.284714, 9.277532, 9.296685, 9.323022, 9.251195, 9.390059, 9.356541, 9.425972, 9.397242, 9.404425, 9.294291, 9.380483, 9.416395, 9.251195, 9.356541, 9.334992, 9.31105, 9.425972, 9.275137, 9.375694, 9.313444, 9.368511, 9.378088, 9.368511, 9.315839, 9.301474, 9.339781, 9.349358, 9.382876, 9.330204, 9.320627, 9.344569, 9.342175, 9.370906, 9.380483, 9.370906, 9.380483, 9.277532, 9.337387, 9.339781, 9.334992, 9.334992, 9.409213, 9.318233, 9.428367, 9.397242, 9.380483, 9.318233, 9.363723, 9.390059, 9.370906, 9.299079, 9.339781, 9.323022, 9.32781, 9.323022, 9.255983, 9.318233, 9.32781, 9.296685, 9.378088, 9.323022, 9.414001, 9.375694, 9.301474, 9.299079, 9.270349, 9.43076, 9.349358, 9.303867, 9.394848, 9.31105, 9.404425, 9.416395, 9.289502, 9.349358, 9.32781, 9.279925, 9.342175, 9.435549, 9.334992, 9.344569, 9.394848, 9.361329, 9.294291, 9.368511, 9.330204, 9.332599, 9.382876, 9.390059, 9.306262, 9.308656, 9.344569, 9.330204, 9.346964, 9.291897, 9.306262, 9.299079, 9.258378, 9.370906, 9.349358, 9.325416, 9.409213, 9.279925, 9.366117, 9.346964, 9.239224, 9.320627, 9.344569, 9.390059, 9.363723, 9.366117, 9.318233, 9.356541, 9.346964, 9.344569, 9.299079, 9.378088, 9.315839, 9.361329, 9.334992, 9.287108, 9.375694, 9.28232, 9.368511, 9.349358, 9.325416, 9.334992, 9.267955, 9.404425, 9.294291, 9.378088, 9.440337, 9.361329, 9.306262, 9.416395, 9.323022, 9.370906, 9.325416, 9.390059, 9.315839, 9.361329, 9.378088, 9.315839, 9.425972, 9.404425, 9.356541, 9.193734, 9.277532, 9.332599, 9.366117, 9.299079, 9.40203, 9.380483, 9.318233, 9.354146, 9.409213, 9.255983, 9.370906, 9.342175, 9.394848, 9.344569, 9.363723, 9.356541]","[-0.007461, -0.00826, -0.007194, -0.00906, -0.007727, -0.00826, -0.005329, -0.007194, -0.007194, -0.009593, -0.006129, -0.006395, -0.006662, -0.008527, -0.007727, -0.006662, -0.007994, -0.007194, -0.00453, -0.005063, -0.006662, -0.005862, -0.007194, -0.007727, -0.005329, -0.006928, -0.007461, -0.005329, -0.008793, -0.00826, -0.007727, -0.007994, -0.006129, -0.005329, -0.005862, -0.007194, -0.007461, -0.00453, -0.005063, -0.006928, -0.005329, -0.008527, -0.006928, -0.007727, -0.008793, -0.006129, -0.008793, -0.010392, -0.007194, -0.006129, -0.005596, -0.006395, -0.006129, -0.007994, -0.006129, -0.006129, -0.006662, -0.006662, -0.007994, -0.007461, -0.008527, -0.007727, -0.007994, -0.006662, -0.006395, -0.006928, -0.006662, -0.007461, -0.00826, -0.006395, -0.006395, -0.007994, -0.006662, -0.007194, -0.009593, -0.00826, -0.006129, -0.007727, -0.006662, -0.007461, -0.007461, -0.006129, -0.009326, -0.006662, -0.009326, -0.00826, -0.005063, -0.006395, -0.00826, -0.00373, -0.00826, -0.007461, -0.005596, -0.006129, -0.007727, -0.006928, -0.006395, -0.010392, -0.006395, -0.006129, -0.007194, -0.007194, -0.007194, -0.005596, -0.009593, -0.007461, -0.007727, -0.005063, -0.009859, -0.006662, -0.00906, -0.005063, -0.005596, -0.007727, -0.003997, -0.007727, -0.005329, -0.005862, -0.006662, -0.005329, -0.008793, -0.010392, -0.005596, -0.00906, -0.004796, -0.006662, -0.005862, -0.008527, -0.004263, -0.006662, -0.005329, -0.007194, -0.00906, -0.006928, -0.007194, -0.007461, -0.010126, -0.006662, -0.006395, -0.005329, -0.006129, -0.006129, -0.005329, -0.005329, -0.008527, -0.007727, -0.006662, -0.009593, -0.006662, -0.009859, -0.006129, -0.005329, -0.005862, -0.006662, -0.007727, -0.005596, -0.005329, -0.00826, -0.006395, -0.010658, -0.00373, -0.004263, -0.006129, -0.006395, -0.007461, -0.006129, -0.007994, -0.006129, -0.00826, -0.005063, -0.008527, -0.006395, -0.007461, -0.005596, -0.008793, -0.007727, -0.009326, -0.00826, -0.003997, -0.006129, -0.007994, -0.006129, -0.006395, -0.005063, -0.008793, -0.006129, -0.006662, -0.005329, -0.007727, -0.006395, -0.007994, -0.007727, -0.006395, -0.00826, -0.010658, -0.007194, -0.005862, -0.006129, -0.006662, -0.006662, -0.00906, -0.00826, -0.007727, -0.009326, -0.007194, -0.00826, -0.007194, -0.007994, -0.006928, -0.007727, -0.006928, -0.007461, -0.004263, -0.006129, -0.008793, -0.004796, -0.007727, -0.006395, -0.006662, -0.011458, -0.005596, -0.006928, -0.006129, -0.00826, -0.00906, -0.007461, -0.006928, -0.006662, -0.00826, -0.006129, -0.007461, -0.005596, -0.009593, -0.006395, -0.007727, -0.007461, -0.006662, -0.009593, -0.009326, -0.005063, -0.009593, -0.009859, -0.006129, -0.007461, -0.00826, -0.009593, -0.006662, -0.005862, -0.004263, -0.008527, -0.008793, -0.010658, -0.009326, -0.005596, -0.006662, -0.007194, -0.005596, -0.008527, -0.004796, -0.00826, -0.003997, -0.007994, -0.007461, -0.006129, -0.007727, -0.007994, -0.006928, -0.006129, -0.005596, -0.007727, -0.006662, -0.008527, -0.007194, -0.006395, -0.009326, -0.008527, -0.007727, -0.00826, -0.00826, -0.008793, -0.007727, -0.008527, -0.006395, -0.005596, -0.006395, -0.005862, -0.006129, -0.006928, -0.006662, -0.008527, -0.010658, -0.007994, -0.006395, -0.007727, -0.007461, -0.005063, -0.005596, -0.008527, -0.006662, -0.006662]","[-0.045832, -0.041035, -0.0437, -0.042101, -0.041035, -0.042634, -0.038904, -0.041302, -0.042634, -0.039969, -0.041302, -0.040769, -0.0437, -0.0429, -0.0437, -0.044233, -0.040769, -0.03917, -0.044233, -0.041835, -0.040502, -0.041302, -0.039969, -0.039969, -0.041302, -0.042634, -0.0437, -0.0429, -0.042634, -0.042101, -0.043167, -0.0429, -0.043167, -0.041835, -0.040502, -0.042101, -0.042634, -0.041035, -0.044233, -0.042368, -0.0429, -0.044233, -0.0429, -0.039436, -0.040236, -0.040769, -0.040502, -0.041302, -0.042634, -0.040769, -0.042101, -0.040502, -0.041568, -0.043433, -0.040769, -0.041835, -0.041035, -0.043433, -0.041835, -0.042368, -0.041568, -0.040236, -0.044499, -0.0429, -0.043167, -0.043433, -0.042101, -0.045565, -0.042634, -0.041835, -0.042368, -0.042634, -0.041035, -0.040236, -0.045565, -0.041835, -0.038371, -0.042101, -0.042101, -0.043966, -0.043433, -0.042101, -0.03917, -0.041568, -0.040769, -0.0429, -0.042634, -0.041568, -0.040502, -0.041568, -0.040769, -0.040769, -0.042634, -0.040502, -0.043167, -0.042634, -0.040502, -0.043966, -0.039969, -0.041568, -0.0437, -0.037838, -0.042368, -0.043966, -0.041568, -0.042634, -0.042101, -0.041035, -0.043167, -0.042101, -0.040769, -0.041835, -0.042368, -0.041035, -0.041302, -0.042634, -0.041568, -0.043966, -0.042368, -0.041302, -0.039703, -0.042634, -0.0429, -0.041568, -0.043433, -0.0429, -0.041035, -0.043433, -0.041835, -0.043167, -0.041035, -0.042368, -0.043167, -0.044233, -0.042634, -0.044766, -0.041302, -0.0429, -0.03917, -0.042368, -0.042101, -0.040769, -0.042634, -0.043966, -0.039436, -0.0429, -0.042368, -0.042101, -0.039969, -0.042368, -0.041035, -0.03917, -0.042634, -0.041568, -0.043167, -0.042368, -0.040769, -0.044766, -0.039703, -0.039436, -0.042101, -0.042368, -0.042634, -0.0429, -0.039969, -0.041568, -0.041835, -0.042368, -0.041302, -0.041835, -0.043433, -0.043433, -0.040769, -0.042634, -0.042368, -0.044766, -0.041835, -0.042101, -0.042101, -0.039969, -0.045565, -0.040769, -0.041302, -0.043167, -0.043433, -0.044233, -0.040769, -0.043167, -0.043433, -0.040769, -0.042101, -0.046364, -0.041302, -0.042368, -0.041568, -0.043433, -0.044499, -0.045565, -0.041302, -0.039703, -0.041568, -0.0429, -0.042368, -0.041568, -0.041568, -0.0429, -0.043167, -0.043966, -0.042368, -0.040236, -0.044499, -0.041302, -0.039969, -0.044766, -0.0429, -0.040769, -0.040502, -0.040236, -0.0437, -0.042368, -0.041302, -0.03917, -0.040236, -0.043167, -0.041302, -0.043167, -0.041035, -0.040769, -0.042368, -0.042634, -0.044233, -0.041035, -0.040769, -0.041302, -0.041835, -0.043433, -0.042368, -0.042101, -0.041035, -0.037305, -0.040502, -0.041835, -0.041035, -0.042634, -0.039703, -0.0429, -0.044233, -0.041835, -0.041302, -0.041568, -0.040236, -0.041835, -0.042634, -0.039969, -0.046098, -0.041568, -0.040502, -0.041302, -0.041035, -0.038904, -0.043167, -0.042101, -0.042368, -0.045032, -0.039703, -0.040769, -0.041568, -0.042634, -0.040502, -0.042634, -0.043433, -0.042634, -0.040236, -0.041835, -0.041835, -0.039703, -0.042634, -0.040769, -0.042634, -0.038637, -0.043966, -0.042101, -0.042101, -0.041035, -0.040236, -0.040236, -0.041302, -0.040236, -0.043167, -0.041568, -0.042368, -0.040236, -0.038637, -0.040502, -0.043167, -0.043966, -0.041835, -0.041302, -0.042101, -0.0429]","[-0.023449, -0.021317, -0.019452, -0.019718, -0.020251, -0.019452, -0.019985, -0.017587, -0.020784, -0.021583, -0.018386, -0.019185, -0.018119, -0.019452, -0.02185, -0.017853, -0.018919, -0.019718, -0.017054, -0.01732, -0.018119, -0.019718, -0.019718, -0.021583, -0.020251, -0.019452, -0.020784, -0.019985, -0.018652, -0.022116, -0.019185, -0.019185, -0.017587, -0.019185, -0.018119, -0.019452, -0.020251, -0.017853, -0.018119, -0.020518, -0.019718, -0.016787, -0.019718, -0.019985, -0.017587, -0.019985, -0.017853, -0.019185, -0.018652, -0.018386, -0.021317, -0.020784, -0.020784, -0.019985, -0.022649, -0.019452, -0.017853, -0.017054, -0.019452, -0.019985, -0.018919, -0.020518, -0.018386, -0.015988, -0.019452, -0.019185, -0.019718, -0.019452, -0.019452, -0.018919, -0.016521, -0.018919, -0.019452, -0.019185, -0.020251, -0.018652, -0.02185, -0.01732, -0.019185, -0.020518, -0.019718, -0.01732, -0.020251, -0.021051, -0.017587, -0.018652, -0.019718, -0.021583, -0.021317, -0.022116, -0.021051, -0.019452, -0.017054, -0.019718, -0.018119, -0.017587, -0.018652, -0.020518, -0.016254, -0.020518, -0.019452, -0.018919, -0.017054, -0.017853, -0.019985, -0.017587, -0.01732, -0.018386, -0.020518, -0.021051, -0.018919, -0.019718, -0.017587, -0.021051, -0.021051, -0.019452, -0.021583, -0.019985, -0.019452, -0.020518, -0.019985, -0.020518, -0.018652, -0.019452, -0.020251, -0.019185, -0.018386, -0.016787, -0.018652, -0.019985, -0.019185, -0.019452, -0.020784, -0.018652, -0.019985, -0.018919, -0.019185, -0.018386, -0.020784, -0.022649, -0.019452, -0.018652, -0.02185, -0.01732, -0.020251, -0.019452, -0.018386, -0.019185, -0.015988, -0.021051, -0.018919, -0.020251, -0.020518, -0.020251, -0.020784, -0.018386, -0.018652, -0.020518, -0.019452, -0.020784, -0.018119, -0.017853, -0.019985, -0.018119, -0.020251, -0.018386, -0.018652, -0.018919, -0.018119, -0.019985, -0.018652, -0.019985, -0.020784, -0.018119, -0.020784, -0.019452, -0.018652, -0.018119, -0.019718, -0.018919, -0.017054, -0.021317, -0.018119, -0.017587, -0.01732, -0.018386, -0.01732, -0.020518, -0.018386, -0.019985, -0.018119, -0.019718, -0.020518, -0.01732, -0.019718, -0.019718, -0.018652, -0.021317, -0.016521, -0.019452, -0.018919, -0.018652, -0.02185, -0.019985, -0.020251, -0.021051, -0.017587, -0.017853, -0.017587, -0.021583, -0.020784, -0.019185, -0.021317, -0.018386, -0.022116, -0.017853, -0.018652, -0.018652, -0.02185, -0.021583, -0.021583, -0.018652, -0.019985, -0.021317, -0.019185, -0.018919, -0.021583, -0.018652, -0.022916, -0.018652, -0.017587, -0.019452, -0.019452, -0.017054, -0.022649, -0.020784, -0.022383, -0.020784, -0.021317, -0.018919, -0.021051, -0.018386, -0.019985, -0.018386, -0.018119, -0.019985, -0.018386, -0.020251, -0.01732, -0.019985, -0.018386, -0.019185, -0.018919, -0.016787, -0.019985, -0.021317, -0.017853, -0.021317, -0.020518, -0.020251, -0.018919, -0.019185, -0.020518, -0.019985, -0.019985, -0.020251, -0.017587, -0.018386, -0.018919, -0.019985, -0.018919, -0.019985, -0.019985, -0.020251, -0.021317, -0.018119, -0.017853, -0.018119, -0.018919, -0.019185, -0.020784, -0.020251, -0.021583, -0.017587, -0.017587, -0.02185, -0.018919, -0.019718, -0.020518, -0.018652, -0.018919, -0.019718, -0.019718, -0.020784, -0.018919, -0.020251, -0.020518, -0.017853, -0.020518, -0.01732]"
1213,"[-0.105345, -0.043096, 0.004788, -0.019154, 0.02873, 0, 0.02873, -0.050278, -0.055067, -0.076614, 0.033519, -0.076614, -0.040701, -0.016759, -0.059855, -0.07422, 0.02873, -0.019154, -0.047884, -0.026336, 0.021548, -0.023942, -0.059855, -0.014365, 0.007183, -0.059855, -0.035913, -0.007183, -0.057461, -0.095768, -0.071826, 0.011971, -0.055067, -0.043096, 0.043096, -0.047884, -0.059855, -0.050278, 0.02873, -0.069432, -0.043096, -0.098162, -0.033519, -0.086191, -0.007183, -0.014365, -0.04549, -0.019154, 0.047884, -0.007183, -0.076614, -0.043096, 0, -0.117316, -0.016759, 0.057461, -0.114922, -0.088585, -0.07422, -0.052672, 0.019154, -0.09098, -0.002394, -0.050278, -0.014365, -0.055067, -0.023942, -0.076614, 0.023942, 0.014365, -0.122104, 0.02873, 0.011971, -0.023942, -0.150835, 0.076614, -0.04549, -0.004788, -0.035913, 0.009577, -0.019154, -0.076614, 0.002394, 0.038307, -0.076614, -0.040701, 0.011971, -0.088585, -0.064643, -0.014365, 0.023942, -0.102951, 0, 0.016759, -0.09098, -0.062249, -0.052672, 0.004788, -0.007183, -0.033519, -0.019154, -0.055067, 0.011971, 0.035913, -0.09098, -0.050278, -0.04549, 0.016759, -0.009577, 0.023942, 0.02873, 0.004788, -0.071826, -0.062249, 0.035913, -0.004788, -0.040701, 0.033519, -0.07422, -0.064643, -0.059855, -0.047884, -0.009577, 0, -0.009577, -0.02873, -0.014365, -0.035913, 0.002394, -0.076614, -0.004788, 0.007183, -0.071826, 0.004788, 0.057461, -0.016759, -0.107739, -0.057461, -0.014365, -0.050278, -0.011971, 0.016759, 0, -0.112527, 0.004788, 0.007183, -0.031125, -0.040701, -0.031125, -0.095768, -0.107739, 0.07422, -0.021548, -0.086191, -0.095768, 0.011971, -0.07422, 0.023942, -0.023942, -0.069432, -0.076614, 0.019154, -0.031125, -0.014365, -0.071826, -0.016759, 0.021548, -0.09098, -0.026336, 0.033519, -0.093374, -0.09098, 0.002394, 0.026336, -0.050278, -0.086191, 0.038307, -0.086191, -0.011971, 0.02873, 0.038307, -0.07422, 0.057461, 0.02873, 0, -0.052672, 0.014365, 0.011971, -0.098162, 0.011971, -0.019154, -0.007183, -0.124498, 0.043096, -0.021548, -0.095768, 0.026336, 0.035913, -0.033519, -0.055067, 0.098162, -0.035913, -0.052672, -0.007183, 0.019154, -0.043096, 0.004788, -0.004788, -0.062249, -0.02873, -0.019154, -0.023942, -0.052672, 0.035913, -0.019154, -0.057461, -0.055067, 0.031125, 0.016759, -0.105345, 0.004788, 0.033519, -0.047884, -0.011971, 0.02873, 0.002394, -0.110133, 0.009577, -0.026336, 0.023942, -0.019154, -0.004788, -0.023942, -0.064643, 0.02873, -0.043096, -0.110133, -0.009577, 0.004788, -0.043096, -0.086191, -0.011971, -0.014365, -0.04549, -0.076614, -0.011971, -0.100556, -0.021548, 0.043096, 0.011971, -0.021548, 0.004788, 0.035913, -0.023942, -0.062249, 0.088585, -0.050278, -0.002394, -0.067038, -0.055067, -0.050278, -0.071826, -0.023942, 0.02873, -0.088585, -0.007183, -0.02873, -0.021548, -0.016759, 0.069432, -0.007183, -0.011971, 0.014365, -0.011971, -0.100556, 0, -0.002394, -0.007183, -0.052672, 0.007183, -0.040701, -0.067038, 0.02873, -0.040701, -0.031125, -0.09098, -0.007183, 0, -0.110133, 0.062249, -0.011971, -0.107739, 0.009577, 0.043096, -0.011971, -0.055067, 0.014365, 0.007183, -0.062249, -0.071826]","[-0.632069, -0.4956, -0.588974, -0.64404, -0.565032, -0.612916, -0.577003, -0.588974, -0.646434, -0.636858, -0.54109, -0.603339, -0.553061, -0.548272, -0.565032, -0.577003, -0.538695, -0.591368, -0.562637, -0.574608, -0.572214, -0.617704, -0.588974, -0.548272, -0.593762, -0.617704, -0.600945, -0.605733, -0.562637, -0.577003, -0.557849, -0.64404, -0.581791, -0.648829, -0.596156, -0.593762, -0.521936, -0.591368, -0.581791, -0.545878, -0.567426, -0.608127, -0.56982, -0.591368, -0.562637, -0.596156, -0.6608, -0.581791, -0.586579, -0.586579, -0.56982, -0.562637, -0.591368, -0.553061, -0.548272, -0.584185, -0.622492, -0.608127, -0.560243, -0.588974, -0.52433, -0.656011, -0.555455, -0.584185, -0.536301, -0.574608, -0.596156, -0.581791, -0.632069, -0.596156, -0.512359, -0.624887, -0.565032, -0.593762, -0.64404, -0.562637, -0.632069, -0.61531, -0.612916, -0.577003, -0.560243, -0.629675, -0.610521, -0.572214, -0.610521, -0.555455, -0.565032, -0.54109, -0.579397, -0.622492, -0.577003, -0.603339, -0.624887, -0.610521, -0.550666, -0.543484, -0.577003, -0.555455, -0.553061, -0.565032, -0.579397, -0.574608, -0.608127, -0.581791, -0.627281, -0.557849, -0.572214, -0.557849, -0.648829, -0.610521, -0.577003, -0.557849, -0.567426, -0.514753, -0.584185, -0.555455, -0.588974, -0.572214, -0.543484, -0.634463, -0.622492, -0.54109, -0.577003, -0.545878, -0.519542, -0.588974, -0.565032, -0.59855, -0.588974, -0.605733, -0.574608, -0.620098, -0.622492, -0.577003, -0.538695, -0.593762, -0.574608, -0.545878, -0.59855, -0.555455, -0.612916, -0.577003, -0.591368, -0.593762, -0.548272, -0.555455, -0.59855, -0.605733, -0.605733, -0.574608, -0.603339, -0.567426, -0.646434, -0.629675, -0.603339, -0.610521, -0.574608, -0.54109, -0.562637, -0.627281, -0.622492, -0.59855, -0.555455, -0.593762, -0.543484, -0.629675, -0.612916, -0.591368, -0.588974, -0.581791, -0.586579, -0.562637, -0.584185, -0.536301, -0.610521, -0.624887, -0.579397, -0.588974, -0.596156, -0.562637, -0.596156, -0.560243, -0.517148, -0.567426, -0.651223, -0.586579, -0.588974, -0.648829, -0.629675, -0.517148, -0.572214, -0.64404, -0.603339, -0.588974, -0.581791, -0.579397, -0.545878, -0.586579, -0.579397, -0.648829, -0.526724, -0.61531, -0.603339, -0.56982, -0.653617, -0.59855, -0.567426, -0.593762, -0.608127, -0.54109, -0.574608, -0.617704, -0.533907, -0.562637, -0.586579, -0.608127, -0.581791, -0.538695, -0.579397, -0.622492, -0.560243, -0.538695, -0.620098, -0.565032, -0.56982, -0.608127, -0.59855, -0.54109, -0.555455, -0.56982, -0.586579, -0.603339, -0.577003, -0.6608, -0.593762, -0.584185, -0.648829, -0.624887, -0.538695, -0.593762, -0.567426, -0.562637, -0.567426, -0.612916, -0.555455, -0.591368, -0.555455, -0.588974, -0.591368, -0.64404, -0.617704, -0.603339, -0.502782, -0.596156, -0.581791, -0.529119, -0.553061, -0.565032, -0.54109, -0.603339, -0.593762, -0.572214, -0.572214, -0.61531, -0.603339, -0.553061, -0.596156, -0.627281, -0.550666, -0.617704, -0.59855, -0.56982, -0.538695, -0.548272, -0.584185, -0.574608, -0.634463, -0.56982, -0.579397, -0.584185, -0.56982, -0.624887, -0.538695, -0.588974, -0.61531, -0.64404, -0.596156, -0.572214, -0.584185, -0.557849, -0.502782, -0.588974, -0.543484, -0.572214, -0.605733, -0.61531, -0.574608, -0.56982, -0.586579, -0.548272]","[9.337387, 9.294291, 9.349358, 9.375694, 9.308656, 9.356541, 9.339781, 9.397242, 9.267955, 9.299079, 9.294291, 9.323022, 9.325416, 9.303867, 9.349358, 9.349358, 9.308656, 9.356541, 9.323022, 9.378088, 9.392453, 9.339781, 9.323022, 9.349358, 9.303867, 9.385271, 9.409213, 9.23683, 9.330204, 9.315839, 9.323022, 9.272743, 9.378088, 9.382876, 9.3733, 9.356541, 9.337387, 9.296685, 9.41879, 9.332599, 9.390059, 9.287108, 9.346964, 9.354146, 9.411607, 9.442732, 9.385271, 9.217676, 9.306262, 9.356541, 9.318233, 9.342175, 9.358934, 9.380483, 9.390059, 9.287108, 9.251195, 9.267955, 9.270349, 9.325416, 9.416395, 9.361329, 9.330204, 9.272743, 9.380483, 9.330204, 9.334992, 9.346964, 9.399636, 9.320627, 9.366117, 9.414001, 9.306262, 9.363723, 9.334992, 9.31105, 9.375694, 9.325416, 9.323022, 9.337387, 9.279925, 9.318233, 9.277532, 9.299079, 9.318233, 9.301474, 9.375694, 9.315839, 9.356541, 9.323022, 9.368511, 9.385271, 9.361329, 9.320627, 9.337387, 9.323022, 9.368511, 9.404425, 9.320627, 9.349358, 9.366117, 9.325416, 9.32781, 9.361329, 9.370906, 9.23683, 9.325416, 9.308656, 9.31105, 9.325416, 9.287108, 9.337387, 9.301474, 9.315839, 9.291897, 9.452309, 9.306262, 9.404425, 9.232041, 9.337387, 9.279925, 9.390059, 9.287108, 9.449914, 9.32781, 9.330204, 9.318233, 9.337387, 9.332599, 9.332599, 9.294291, 9.299079, 9.334992, 9.361329, 9.344569, 9.308656, 9.392453, 9.390059, 9.277532, 9.378088, 9.356541, 9.258378, 9.284714, 9.358934, 9.351752, 9.267955, 9.255983, 9.344569, 9.356541, 9.241618, 9.40203, 9.318233, 9.320627, 9.437943, 9.440337, 9.325416, 9.344569, 9.337387, 9.368511, 9.349358, 9.361329, 9.248801, 9.279925, 9.409213, 9.277532, 9.390059, 9.294291, 9.284714, 9.346964, 9.299079, 9.332599, 9.334992, 9.382876, 9.315839, 9.318233, 9.306262, 9.318233, 9.301474, 9.227253, 9.325416, 9.358934, 9.248801, 9.3733, 9.303867, 9.330204, 9.366117, 9.411607, 9.3733, 9.301474, 9.344569, 9.351752, 9.366117, 9.239224, 9.342175, 9.425972, 9.28232, 9.275137, 9.332599, 9.344569, 9.339781, 9.320627, 9.40203, 9.26556, 9.366117, 9.32781, 9.404425, 9.277532, 9.334992, 9.25359, 9.332599, 9.387665, 9.320627, 9.363723, 9.28232, 9.339781, 9.346964, 9.248801, 9.409213, 9.361329, 9.270349, 9.291897, 9.411607, 9.32781, 9.31105, 9.43076, 9.399636, 9.380483, 9.28232, 9.320627, 9.349358, 9.275137, 9.291897, 9.294291, 9.308656, 9.25359, 9.263166, 9.325416, 9.346964, 9.323022, 9.277532, 9.354146, 9.275137, 9.346964, 9.165004, 9.354146, 9.43076, 9.318233, 9.318233, 9.267955, 9.366117, 9.368511, 9.354146, 9.23683, 9.392453, 9.471462, 9.318233, 9.26556, 9.263166, 9.44752, 9.452309, 9.239224, 9.442732, 9.392453, 9.394848, 9.248801, 9.279925, 9.385271, 9.270349, 9.394848, 9.368511, 9.354146, 9.299079, 9.287108, 9.332599, 9.272743, 9.318233, 9.25359, 9.339781, 9.40203, 9.334992, 9.390059, 9.399636, 9.287108, 9.25359, 9.344569, 9.272743, 9.375694, 9.318233, 9.332599, 9.416395, 9.363723, 9.31105, 9.308656, 9.306262, 9.258378, 9.315839, 9.394848, 9.390059, 9.31105, 9.263166]","[-0.007727, -0.007194, -0.006662, -0.00906, -0.006662, -0.007727, -0.005596, -0.005329, -0.007194, -0.006395, -0.005329, -0.008527, -0.006395, -0.006395, -0.00906, -0.010126, -0.007727, -0.006395, -0.006395, -0.008527, -0.005063, -0.008527, -0.006395, -0.008793, -0.007994, -0.007727, -0.008793, -0.009593, -0.005862, -0.006928, -0.006662, -0.007994, -0.007727, -0.009326, -0.006395, -0.009326, -0.007727, -0.007461, -0.005862, -0.007461, -0.007994, -0.006662, -0.005063, -0.005862, -0.006928, -0.007194, -0.005063, -0.005063, -0.009593, -0.006129, -0.00453, -0.006662, -0.007727, -0.004796, -0.006928, -0.006662, -0.007194, -0.006928, -0.007727, -0.006129, -0.008793, -0.007461, -0.005329, -0.010126, -0.006395, -0.006928, -0.005862, -0.007194, -0.007727, -0.009326, -0.006928, -0.00826, -0.006129, -0.00826, -0.006395, -0.00906, -0.007994, -0.00826, -0.007461, -0.007727, -0.005596, -0.009593, -0.009593, -0.006928, -0.006928, -0.005862, -0.005862, -0.008793, -0.007194, -0.005063, -0.009326, -0.010392, -0.007994, -0.007994, -0.007194, -0.009859, -0.006129, -0.007461, -0.007194, -0.00826, -0.007994, -0.004796, -0.00906, -0.006928, -0.007461, -0.00826, -0.005862, -0.007461, -0.003464, -0.008793, -0.008793, -0.006928, -0.006928, -0.009593, -0.007194, -0.007194, -0.00906, -0.007461, -0.006662, -0.007994, -0.006928, -0.007727, -0.006395, -0.006662, -0.005862, -0.005596, -0.004796, -0.007994, -0.006928, -0.008527, -0.00826, -0.006662, -0.008527, -0.005862, -0.006928, -0.00826, -0.005862, -0.009859, -0.005596, -0.006129, -0.008793, -0.007461, -0.007994, -0.005063, -0.009593, -0.007461, -0.00906, -0.00906, -0.008527, -0.006129, -0.007994, -0.007994, -0.005862, -0.005862, -0.005596, -0.007194, -0.003997, -0.006129, -0.00826, -0.005063, -0.005862, -0.006928, -0.006129, -0.008793, -0.008793, -0.006395, -0.003997, -0.006928, -0.007994, -0.006928, -0.007994, -0.007727, -0.005329, -0.007461, -0.00826, -0.006129, -0.005329, -0.007727, -0.007461, -0.006662, -0.007461, -0.00826, -0.008793, -0.006662, -0.010658, -0.007727, -0.009326, -0.008793, -0.009593, -0.007727, -0.006662, -0.007461, -0.005596, -0.00826, -0.007994, -0.009326, -0.006662, -0.007194, -0.008793, -0.00826, -0.005596, -0.007727, -0.00826, -0.006395, -0.006928, -0.005063, -0.010392, -0.006662, -0.006662, -0.007727, -0.007727, -0.007994, -0.007994, -0.007194, -0.010392, -0.007727, -0.006662, -0.005329, -0.009326, -0.006662, -0.005329, -0.006662, -0.009593, -0.004796, -0.007727, -0.00906, -0.008793, -0.00373, -0.006395, -0.008527, -0.004263, -0.005329, -0.006662, -0.005063, -0.007461, -0.007727, -0.006662, -0.007194, -0.007194, -0.00453, -0.005329, -0.00906, -0.007461, -0.006129, -0.005063, -0.007994, -0.007994, -0.008793, -0.007994, -0.005862, -0.006129, -0.007994, -0.007727, -0.007461, -0.006928, -0.007727, -0.007994, -0.008527, -0.007194, -0.009859, -0.006395, -0.005329, -0.008793, -0.006395, -0.005329, -0.008527, -0.007194, -0.005329, -0.00906, -0.007994, -0.005596, -0.007461, -0.008793, -0.008527, -0.009859, -0.006928, -0.006129, -0.007461, -0.007994, -0.007194, -0.007994, -0.006662, -0.007727, -0.006129, -0.007194, -0.007994, -0.007727, -0.009859, -0.007194, -0.008793, -0.006928, -0.007194, -0.006662, -0.008527, -0.008527, -0.007194, -0.004796, -0.00453, -0.008527, -0.00826]","[-0.044499, -0.041568, -0.042368, -0.0437, -0.041035, -0.040769, -0.040502, -0.041568, -0.0437, -0.041568, -0.040236, -0.040502, -0.040236, -0.043167, -0.043433, -0.041835, -0.041568, -0.041302, -0.040769, -0.042368, -0.043966, -0.042101, -0.041835, -0.042101, -0.042368, -0.041035, -0.041035, -0.040236, -0.042368, -0.042368, -0.0429, -0.042368, -0.044766, -0.044233, -0.044499, -0.0437, -0.039969, -0.042634, -0.044766, -0.043167, -0.046631, -0.041302, -0.041302, -0.0429, -0.042101, -0.043966, -0.040769, -0.039703, -0.042368, -0.042634, -0.043167, -0.040502, -0.043167, -0.045032, -0.0429, -0.040769, -0.0429, -0.041035, -0.042368, -0.041568, -0.041568, -0.042368, -0.041035, -0.041302, -0.041835, -0.042634, -0.043167, -0.043167, -0.043966, -0.043433, -0.044766, -0.041835, -0.042634, -0.042634, -0.0429, -0.041835, -0.041835, -0.041835, -0.039969, -0.041568, -0.041302, -0.0429, -0.040236, -0.042101, -0.042368, -0.040236, -0.044233, -0.039969, -0.041035, -0.040502, -0.043433, -0.043433, -0.038637, -0.041835, -0.044766, -0.040769, -0.041568, -0.041035, -0.041835, -0.03917, -0.043966, -0.042101, -0.042368, -0.041568, -0.0429, -0.040502, -0.041035, -0.041302, -0.041568, -0.0437, -0.042101, -0.041302, -0.041835, -0.043167, -0.041302, -0.042101, -0.042368, -0.044233, -0.0429, -0.044499, -0.042634, -0.042101, -0.043433, -0.039703, -0.042368, -0.041302, -0.040502, -0.041568, -0.042101, -0.042101, -0.039969, -0.044766, -0.040769, -0.038371, -0.041568, -0.041302, -0.039436, -0.041568, -0.042634, -0.042368, -0.041302, -0.042368, -0.041568, -0.040769, -0.039703, -0.041035, -0.041035, -0.041568, -0.041568, -0.042634, -0.042368, -0.042368, -0.039969, -0.0429, -0.041568, -0.042634, -0.0437, -0.042368, -0.041035, -0.044766, -0.041835, -0.041835, -0.03917, -0.045565, -0.041035, -0.042368, -0.045832, -0.043433, -0.041035, -0.040769, -0.0429, -0.0429, -0.042368, -0.041568, -0.041568, -0.045299, -0.043167, -0.042368, -0.042368, -0.039436, -0.041568, -0.040502, -0.044233, -0.040236, -0.039703, -0.040769, -0.0429, -0.041302, -0.0429, -0.042101, -0.041835, -0.041035, -0.039969, -0.040502, -0.041302, -0.042368, -0.040236, -0.043433, -0.042368, -0.039436, -0.039969, -0.041302, -0.041568, -0.041302, -0.041835, -0.043433, -0.043433, -0.041035, -0.040502, -0.038637, -0.040502, -0.039969, -0.043966, -0.038371, -0.042634, -0.042634, -0.0429, -0.039436, -0.0429, -0.040236, -0.039969, -0.041035, -0.042634, -0.043167, -0.03917, -0.041302, -0.043433, -0.042634, -0.040769, -0.042101, -0.045299, -0.040769, -0.042634, -0.041835, -0.042634, -0.043167, -0.042368, -0.0429, -0.0429, -0.0437, -0.03917, -0.043167, -0.043167, -0.041568, -0.043966, -0.042101, -0.040236, -0.042368, -0.0429, -0.040502, -0.042368, -0.0429, -0.042634, -0.039436, -0.0429, -0.039703, -0.0429, -0.041835, -0.041835, -0.041302, -0.041568, -0.0429, -0.039436, -0.042368, -0.042101, -0.040502, -0.042101, -0.0437, -0.041568, -0.042634, -0.042634, -0.041302, -0.043433, -0.041835, -0.042634, -0.043167, -0.042368, -0.03917, -0.041568, -0.041568, -0.041835, -0.041302, -0.041835, -0.041568, -0.040236, -0.042101, -0.041035, -0.042368, -0.044233, -0.045299, -0.044233, -0.042101, -0.043167, -0.0429, -0.043167, -0.041568, -0.041035, -0.040769, -0.038637, -0.041568]","[-0.017587, -0.022916, -0.018386, -0.017587, -0.018652, -0.021051, -0.02185, -0.019718, -0.021317, -0.019185, -0.019985, -0.019718, -0.020251, -0.019452, -0.019985, -0.022649, -0.014655, -0.019185, -0.018919, -0.018119, -0.019985, -0.019452, -0.017054, -0.019452, -0.014655, -0.022116, -0.020784, -0.020518, -0.019985, -0.018119, -0.019185, -0.018919, -0.016521, -0.017054, -0.020784, -0.019185, -0.018919, -0.022116, -0.020518, -0.019452, -0.018652, -0.019452, -0.02185, -0.019185, -0.018919, -0.02185, -0.019452, -0.018652, -0.02185, -0.020518, -0.017054, -0.016254, -0.017587, -0.019718, -0.019985, -0.017587, -0.017853, -0.018652, -0.018652, -0.017587, -0.02185, -0.018119, -0.018386, -0.019985, -0.017587, -0.019185, -0.016787, -0.021317, -0.019185, -0.018386, -0.018919, -0.020518, -0.020251, -0.018652, -0.020518, -0.019185, -0.018652, -0.019718, -0.018652, -0.016521, -0.019985, -0.021317, -0.019985, -0.019718, -0.017587, -0.019452, -0.021051, -0.019185, -0.020784, -0.019985, -0.018386, -0.02185, -0.020518, -0.022116, -0.018652, -0.02185, -0.019718, -0.020518, -0.01732, -0.017054, -0.020251, -0.021051, -0.022116, -0.018386, -0.019452, -0.017853, -0.022383, -0.018919, -0.020518, -0.018919, -0.022116, -0.019452, -0.019718, -0.020518, -0.017587, -0.018652, -0.017587, -0.018386, -0.019452, -0.017587, -0.018919, -0.016254, -0.018919, -0.017853, -0.017054, -0.017853, -0.01732, -0.018386, -0.019452, -0.019452, -0.019985, -0.018119, -0.017054, -0.019185, -0.018386, -0.020784, -0.020784, -0.021051, -0.019718, -0.018919, -0.020784, -0.019718, -0.019985, -0.020784, -0.019452, -0.020784, -0.020518, -0.020518, -0.017853, -0.020518, -0.018919, -0.019985, -0.018386, -0.019452, -0.019452, -0.02185, -0.019985, -0.019718, -0.020251, -0.019452, -0.020251, -0.018652, -0.02185, -0.022383, -0.021051, -0.016787, -0.01732, -0.022383, -0.020784, -0.020784, -0.019718, -0.018119, -0.019985, -0.017853, -0.017054, -0.018919, -0.021051, -0.019452, -0.018919, -0.020518, -0.018652, -0.020251, -0.02185, -0.018119, -0.018652, -0.018119, -0.020251, -0.020251, -0.021583, -0.019452, -0.019718, -0.019185, -0.019185, -0.02185, -0.019985, -0.017587, -0.021583, -0.019452, -0.022649, -0.019185, -0.019185, -0.021051, -0.020518, -0.020518, -0.019185, -0.020518, -0.019452, -0.022916, -0.019718, -0.018652, -0.018919, -0.021051, -0.018386, -0.022116, -0.01732, -0.01732, -0.021583, -0.017853, -0.018119, -0.017587, -0.022116, -0.022116, -0.017853, -0.01732, -0.020251, -0.020518, -0.018652, -0.019718, -0.020784, -0.019185, -0.020251, -0.020251, -0.019718, -0.01732, -0.020784, -0.01732, -0.019718, -0.018652, -0.018119, -0.020518, -0.021051, -0.020251, -0.015988, -0.018386, -0.018652, -0.018919, -0.020518, -0.017054, -0.019185, -0.017853, -0.019185, -0.018919, -0.017587, -0.023182, -0.019452, -0.019718, -0.018652, -0.020251, -0.018119, -0.018919, -0.022116, -0.020251, -0.018119, -0.022116, -0.021583, -0.021051, -0.017853, -0.019185, -0.021583, -0.018386, -0.019718, -0.019985, -0.019985, -0.018386, -0.021583, -0.016787, -0.019718, -0.019985, -0.017054, -0.020518, -0.020784, -0.018119, -0.019985, -0.020518, -0.020518, -0.021051, -0.019452, -0.019985, -0.019452, -0.017853, -0.020518, -0.016254, -0.018386, -0.019718, -0.019718, -0.018652, -0.018919, -0.021051, -0.018119, -0.018652]"
1218,"[-0.023942, 0.033519, -0.083797, -0.016759, -0.021548, -0.11971, 0.033519, -0.059855, -0.083797, 0.02873, 0.016759, -0.067038, -0.033519, 0.011971, -0.038307, -0.023942, -0.016759, 0.004788, -0.081403, 0.014365, 0.083797, -0.040701, -0.086191, -0.031125, -0.007183, -0.107739, -0.007183, -0.021548, 0, -0.081403, 0.002394, -0.014365, -0.071826, 0.004788, 0.004788, -0.035913, -0.009577, -0.011971, -0.129287, -0.04549, -0.07422, -0.009577, -0.047884, -0.035913, -0.019154, -0.035913, -0.088585, -0.004788, -0.019154, -0.047884, -0.076614, -0.019154, 0.011971, -0.129287, -0.069432, -0.095768, -0.071826, 0, -0.011971, 0, -0.064643, -0.016759, 0.026336, -0.071826, -0.04549, -0.031125, 0.002394, 0.038307, -0.126893, -0.052672, -0.095768, -0.019154, -0.014365, -0.014365, 0.007183, -0.047884, -0.079009, -0.064643, 0.088585, -0.064643, -0.04549, -0.040701, -0.019154, -0.035913, -0.052672, -0.033519, -0.040701, -0.055067, -0.019154, -0.035913, -0.047884, 0.011971, 0.021548, -0.052672, 0.002394, 0.038307, 0.002394, -0.064643, 0, -0.052672, -0.052672, -0.07422, -0.057461, 0.055067, -0.026336, -0.040701, -0.040701, -0.040701, -0.016759, -0.040701, -0.124498, -0.023942, 0.021548, -0.040701, -0.040701, 0.021548, -0.02873, -0.011971, -0.071826, -0.043096, 0.007183, -0.088585, 0.014365, -0.002394, -0.04549, -0.098162, 0.026336, -0.052672, -0.064643, -0.023942, -0.019154, -0.033519, -0.067038, -0.062249, -0.007183, -0.031125, -0.007183, -0.040701, -0.047884, -0.002394, -0.071826, -0.002394, -0.141258, 0.019154, 0.026336, -0.07422, 0.033519, 0.023942, 0.033519, -0.035913, -0.067038, 0.009577, -0.079009, 0.014365, 0.057461, -0.062249, -0.117316, 0.002394, -0.021548, -0.105345, -0.004788, -0.014365, -0.09098, -0.059855, -0.004788, -0.02873, -0.07422, -0.043096, 0.076614, -0.086191, -0.102951, 0, -0.079009, -0.069432, -0.016759, -0.035913, 0.011971, 0.050278, -0.100556, -0.043096, -0.086191, 0.035913, -0.088585, 0.016759, 0.019154, 0.009577, -0.069432, 0.004788, 0.07422, -0.100556, -0.031125, 0.019154, -0.019154, -0.052672, 0.009577, -0.033519, -0.059855, -0.050278, -0.007183, -0.014365, -0.083797, -0.021548, 0.033519, -0.134075, -0.007183, 0.019154, -0.021548, 0.007183, -0.004788, -0.014365, -0.021548, -0.040701, 0.02873, -0.031125, 0.038307, 0, 0.009577, -0.004788, -0.014365, -0.038307, -0.083797, -0.059855, -0.040701, 0.038307, -0.105345, -0.040701, -0.038307, -0.071826, -0.09098, 0.038307, -0.079009, 0.002394, -0.055067, -0.095768, -0.02873, -0.093374, -0.007183, -0.081403, -0.040701, 0.033519, -0.02873, -0.095768, 0.019154, -0.059855, -0.067038, 0.035913, 0.059855, -0.081403, -0.047884, 0.011971, -0.047884, -0.04549, -0.105345, -0.021548, -0.035913, -0.093374, -0.004788, 0.007183, -0.088585, -0.009577, 0.021548, 0.055067, -0.083797, -0.023942, 0, -0.021548, -0.047884, -0.047884, -0.023942, -0.095768, 0.026336, 0.02873, -0.023942, -0.002394, 0, 0.033519, -0.071826, 0.004788, 0.009577, -0.021548, -0.043096, 0.002394, -0.021548, -0.04549, 0.023942, -0.011971, -0.023942, 0.031125, -0.04549, 0.004788, -0.083797, -0.026336, 0.040701, -0.021548, -0.052672, 0.04549, -0.059855, -0.021548, -0.040701, -0.057461]","[-0.560243, -0.584185, -0.593762, -0.620098, -0.555455, -0.550666, -0.608127, -0.64404, -0.591368, -0.600945, -0.588974, -0.665588, -0.548272, -0.59855, -0.584185, -0.61531, -0.536301, -0.574608, -0.593762, -0.627281, -0.579397, -0.577003, -0.612916, -0.526724, -0.538695, -0.545878, -0.61531, -0.584185, -0.632069, -0.579397, -0.612916, -0.646434, -0.565032, -0.553061, -0.596156, -0.632069, -0.610521, -0.579397, -0.52433, -0.526724, -0.646434, -0.632069, -0.617704, -0.610521, -0.591368, -0.636858, -0.56982, -0.514753, -0.521936, -0.603339, -0.514753, -0.61531, -0.646434, -0.624887, -0.562637, -0.548272, -0.562637, -0.605733, -0.553061, -0.593762, -0.605733, -0.624887, -0.608127, -0.572214, -0.565032, -0.605733, -0.574608, -0.543484, -0.550666, -0.581791, -0.572214, -0.565032, -0.605733, -0.557849, -0.553061, -0.610521, -0.605733, -0.620098, -0.59855, -0.593762, -0.557849, -0.543484, -0.581791, -0.557849, -0.538695, -0.593762, -0.605733, -0.608127, -0.605733, -0.581791, -0.622492, -0.579397, -0.54109, -0.603339, -0.629675, -0.610521, -0.646434, -0.600945, -0.52433, -0.627281, -0.565032, -0.620098, -0.593762, -0.620098, -0.56982, -0.52433, -0.600945, -0.577003, -0.577003, -0.565032, -0.581791, -0.543484, -0.59855, -0.603339, -0.54109, -0.490811, -0.577003, -0.565032, -0.593762, -0.608127, -0.560243, -0.586579, -0.555455, -0.567426, -0.577003, -0.641646, -0.572214, -0.641646, -0.596156, -0.600945, -0.521936, -0.6608, -0.557849, -0.567426, -0.565032, -0.555455, -0.567426, -0.579397, -0.634463, -0.553061, -0.584185, -0.596156, -0.543484, -0.586579, -0.536301, -0.624887, -0.577003, -0.553061, -0.531513, -0.577003, -0.543484, -0.663194, -0.591368, -0.596156, -0.545878, -0.617704, -0.577003, -0.538695, -0.627281, -0.600945, -0.591368, -0.572214, -0.545878, -0.538695, -0.509965, -0.545878, -0.577003, -0.59855, -0.588974, -0.586579, -0.610521, -0.584185, -0.610521, -0.586579, -0.548272, -0.593762, -0.548272, -0.605733, -0.548272, -0.574608, -0.567426, -0.557849, -0.555455, -0.581791, -0.584185, -0.574608, -0.653617, -0.548272, -0.54109, -0.529119, -0.641646, -0.579397, -0.596156, -0.593762, -0.555455, -0.586579, -0.610521, -0.538695, -0.553061, -0.567426, -0.593762, -0.593762, -0.560243, -0.565032, -0.646434, -0.593762, -0.574608, -0.579397, -0.577003, -0.588974, -0.581791, -0.545878, -0.531513, -0.588974, -0.596156, -0.584185, -0.608127, -0.555455, -0.577003, -0.553061, -0.634463, -0.531513, -0.555455, -0.596156, -0.620098, -0.579397, -0.586579, -0.586579, -0.59855, -0.54109, -0.593762, -0.574608, -0.608127, -0.579397, -0.610521, -0.581791, -0.593762, -0.581791, -0.593762, -0.581791, -0.596156, -0.574608, -0.574608, -0.600945, -0.658405, -0.641646, -0.617704, -0.610521, -0.574608, -0.577003, -0.526724, -0.636858, -0.588974, -0.543484, -0.59855, -0.632069, -0.562637, -0.557849, -0.627281, -0.617704, -0.526724, -0.588974, -0.600945, -0.588974, -0.605733, -0.612916, -0.581791, -0.581791, -0.64404, -0.608127, -0.593762, -0.545878, -0.608127, -0.627281, -0.591368, -0.577003, -0.603339, -0.529119, -0.596156, -0.632069, -0.536301, -0.577003, -0.59855, -0.543484, -0.555455, -0.593762, -0.627281, -0.584185, -0.531513, -0.557849, -0.572214, -0.543484, -0.555455, -0.538695, -0.574608, -0.610521, -0.577003, -0.603339, -0.553061, -0.588974]","[9.370906, 9.380483, 9.330204, 9.356541, 9.368511, 9.339781, 9.303867, 9.294291, 9.318233, 9.308656, 9.260772, 9.378088, 9.32781, 9.411607, 9.363723, 9.457097, 9.289502, 9.337387, 9.366117, 9.392453, 9.234436, 9.368511, 9.41879, 9.291897, 9.378088, 9.239224, 9.382876, 9.318233, 9.385271, 9.370906, 9.428367, 9.330204, 9.406818, 9.354146, 9.378088, 9.330204, 9.318233, 9.370906, 9.382876, 9.361329, 9.382876, 9.279925, 9.390059, 9.25359, 9.339781, 9.356541, 9.409213, 9.325416, 9.392453, 9.332599, 9.390059, 9.308656, 9.339781, 9.354146, 9.337387, 9.356541, 9.31105, 9.332599, 9.330204, 9.301474, 9.296685, 9.378088, 9.330204, 9.421184, 9.344569, 9.294291, 9.368511, 9.303867, 9.351752, 9.370906, 9.246407, 9.356541, 9.349358, 9.275137, 9.342175, 9.251195, 9.284714, 9.378088, 9.26556, 9.337387, 9.313444, 9.272743, 9.255983, 9.351752, 9.382876, 9.332599, 9.325416, 9.390059, 9.289502, 9.306262, 9.344569, 9.303867, 9.337387, 9.241618, 9.392453, 9.368511, 9.294291, 9.387665, 9.428367, 9.361329, 9.26556, 9.303867, 9.399636, 9.366117, 9.287108, 9.31105, 9.334992, 9.32781, 9.289502, 9.279925, 9.346964, 9.284714, 9.358934, 9.31105, 9.416395, 9.375694, 9.279925, 9.428367, 9.294291, 9.387665, 9.251195, 9.323022, 9.349358, 9.339781, 9.334992, 9.346964, 9.301474, 9.26556, 9.320627, 9.318233, 9.392453, 9.363723, 9.270349, 9.308656, 9.244013, 9.366117, 9.294291, 9.325416, 9.416395, 9.287108, 9.351752, 9.363723, 9.397242, 9.337387, 9.397242, 9.414001, 9.409213, 9.291897, 9.421184, 9.363723, 9.334992, 9.397242, 9.308656, 9.334992, 9.32781, 9.299079, 9.397242, 9.325416, 9.334992, 9.342175, 9.363723, 9.320627, 9.263166, 9.390059, 9.385271, 9.354146, 9.346964, 9.31105, 9.378088, 9.301474, 9.313444, 9.442732, 9.267955, 9.358934, 9.356541, 9.354146, 9.349358, 9.303867, 9.318233, 9.31105, 9.320627, 9.215282, 9.334992, 9.344569, 9.361329, 9.303867, 9.351752, 9.25359, 9.334992, 9.320627, 9.397242, 9.342175, 9.325416, 9.31105, 9.339781, 9.330204, 9.363723, 9.349358, 9.351752, 9.279925, 9.344569, 9.277532, 9.294291, 9.32781, 9.358934, 9.315839, 9.433155, 9.397242, 9.272743, 9.28232, 9.279925, 9.363723, 9.385271, 9.299079, 9.299079, 9.351752, 9.289502, 9.382876, 9.409213, 9.325416, 9.366117, 9.299079, 9.315839, 9.277532, 9.299079, 9.339781, 9.358934, 9.306262, 9.387665, 9.3733, 9.308656, 9.279925, 9.294291, 9.232041, 9.222465, 9.318233, 9.277532, 9.31105, 9.414001, 9.3733, 9.337387, 9.394848, 9.342175, 9.323022, 9.3733, 9.356541, 9.385271, 9.380483, 9.337387, 9.330204, 9.270349, 9.284714, 9.270349, 9.354146, 9.315839, 9.291897, 9.279925, 9.296685, 9.354146, 9.32781, 9.318233, 9.332599, 9.303867, 9.411607, 9.368511, 9.380483, 9.478644, 9.294291, 9.337387, 9.330204, 9.349358, 9.332599, 9.41879, 9.277532, 9.313444, 9.368511, 9.31105, 9.31105, 9.387665, 9.28232, 9.220071, 9.339781, 9.387665, 9.356541, 9.31105, 9.277532, 9.406818, 9.380483, 9.279925, 9.3733, 9.299079, 9.325416, 9.267955, 9.404425, 9.301474, 9.414001, 9.370906, 9.370906, 9.421184, 9.344569]","[-0.006129, -0.005063, -0.006395, -0.006395, -0.007994, -0.006662, -0.005862, -0.005862, -0.006928, -0.007727, -0.007194, -0.006662, -0.007461, -0.008793, -0.010392, -0.006395, -0.00453, -0.00826, -0.00826, -0.006662, -0.008793, -0.007461, -0.010392, -0.006662, -0.006928, -0.007194, -0.007994, -0.007727, -0.00826, -0.006129, -0.005596, -0.005596, -0.005862, -0.00826, -0.007727, -0.00826, -0.006928, -0.006928, -0.006129, -0.006395, -0.009593, -0.006662, -0.00826, -0.006129, -0.004263, -0.007461, -0.007727, -0.00453, -0.008527, -0.007727, -0.007994, -0.005862, -0.005862, -0.006928, -0.007194, -0.007461, -0.007727, -0.003997, -0.007994, -0.006395, -0.007194, -0.006662, -0.006129, -0.008793, -0.00826, -0.006129, -0.006129, -0.005596, -0.007194, -0.00906, -0.008793, -0.005063, -0.005329, -0.008527, -0.006395, -0.007194, -0.004796, -0.006395, -0.006928, -0.007461, -0.007461, -0.006129, -0.006395, -0.007727, -0.005063, -0.00906, -0.00373, -0.006928, -0.006928, -0.004796, -0.006395, -0.005862, -0.006928, -0.008793, -0.006662, -0.007994, -0.007194, -0.008793, -0.00826, -0.005862, -0.007994, -0.007194, -0.006129, -0.007727, -0.009326, -0.007727, -0.008793, -0.006928, -0.006129, -0.006662, -0.006928, -0.006928, -0.006129, -0.006928, -0.005862, -0.005596, -0.006129, -0.007994, -0.008527, -0.008527, -0.006129, -0.006129, -0.007727, -0.007194, -0.00453, -0.005063, -0.005329, -0.006395, -0.00453, -0.007461, -0.006395, -0.006928, -0.005862, -0.009859, -0.007994, -0.007461, -0.005862, -0.005862, -0.00826, -0.005063, -0.00826, -0.007727, -0.00826, -0.006129, -0.007194, -0.005862, -0.005596, -0.007727, -0.005596, -0.006928, -0.007194, -0.006662, -0.00826, -0.006662, -0.008527, -0.007461, -0.006662, -0.010126, -0.005063, -0.007194, -0.008793, -0.007194, -0.010126, -0.007727, -0.005862, -0.006395, -0.007194, -0.005862, -0.010658, -0.007727, -0.008527, -0.006662, -0.00826, -0.006395, -0.005063, -0.007994, -0.006928, -0.006928, -0.007461, -0.006662, -0.006395, -0.006129, -0.00826, -0.007194, -0.008527, -0.006662, -0.009593, -0.006129, -0.006928, -0.005329, -0.010658, -0.006928, -0.007194, -0.006129, -0.00906, -0.006129, -0.007461, -0.006662, -0.007194, -0.007194, -0.00826, -0.009326, -0.006928, -0.005596, -0.006662, -0.006928, -0.009859, -0.004796, -0.007194, -0.006129, -0.006129, -0.005596, -0.007461, -0.005596, -0.006662, -0.007994, -0.005862, -0.006928, -0.006662, -0.007994, -0.006928, -0.00826, -0.004796, -0.005596, -0.009326, -0.007994, -0.006395, -0.007461, -0.009593, -0.008527, -0.006662, -0.006129, -0.004796, -0.009593, -0.008527, -0.005596, -0.006129, -0.006662, -0.006129, -0.006395, -0.007994, -0.006395, -0.007194, -0.008793, -0.005862, -0.007461, -0.007461, -0.011724, -0.006928, -0.007194, -0.006662, -0.007727, -0.008527, -0.005862, -0.009326, -0.007194, -0.005063, -0.005862, -0.007194, -0.00453, -0.006395, -0.004796, -0.005862, -0.006662, -0.007194, -0.005862, -0.008527, -0.008793, -0.006662, -0.005862, -0.006395, -0.010126, -0.006129, -0.005862, -0.008793, -0.007194, -0.007194, -0.007727, -0.007727, -0.006662, -0.005596, -0.00826, -0.006129, -0.007994, -0.006928, -0.007727, -0.007461, -0.006928, -0.00826, -0.006395, -0.007194, -0.004796, -0.00906, -0.009326, -0.008527, -0.005329, -0.006129, -0.009326, -0.00826, -0.007994]","[-0.043433, -0.041835, -0.041035, -0.039969, -0.040769, -0.040236, -0.041568, -0.042368, -0.041302, -0.041302, -0.042368, -0.045832, -0.040502, -0.041568, -0.042368, -0.037571, -0.044233, -0.042634, -0.041302, -0.042101, -0.042634, -0.0429, -0.041568, -0.041035, -0.043433, -0.042368, -0.0437, -0.041835, -0.042368, -0.042368, -0.042634, -0.040769, -0.042634, -0.041035, -0.0429, -0.040236, -0.041035, -0.041035, -0.044233, -0.041035, -0.039436, -0.041835, -0.042368, -0.045032, -0.038904, -0.041035, -0.043167, -0.040769, -0.041302, -0.041302, -0.043433, -0.041302, -0.041568, -0.041568, -0.039703, -0.042634, -0.041302, -0.043167, -0.044233, -0.040769, -0.045299, -0.043433, -0.043966, -0.03917, -0.0429, -0.041035, -0.0429, -0.039703, -0.039969, -0.039969, -0.0429, -0.040769, -0.043167, -0.041835, -0.043167, -0.0429, -0.040502, -0.0437, -0.041568, -0.044233, -0.039436, -0.041302, -0.041835, -0.039969, -0.042101, -0.041035, -0.040502, -0.041302, -0.0437, -0.040502, -0.042634, -0.043433, -0.042634, -0.041302, -0.045565, -0.043167, -0.041302, -0.044766, -0.040236, -0.041835, -0.043433, -0.041035, -0.0437, -0.040769, -0.042368, -0.043167, -0.0437, -0.043167, -0.042634, -0.040236, -0.041035, -0.041568, -0.041035, -0.042368, -0.042368, -0.042368, -0.039969, -0.039969, -0.040769, -0.041835, -0.041568, -0.043966, -0.0437, -0.041302, -0.0429, -0.042368, -0.042368, -0.043167, -0.043167, -0.0429, -0.041302, -0.0429, -0.043433, -0.041568, -0.041568, -0.039969, -0.040236, -0.045565, -0.039703, -0.042101, -0.041035, -0.039703, -0.041568, -0.041568, -0.041568, -0.041035, -0.043167, -0.040502, -0.041302, -0.042101, -0.041835, -0.042368, -0.041835, -0.042634, -0.043167, -0.041835, -0.043167, -0.040769, -0.042634, -0.045032, -0.043433, -0.0429, -0.041835, -0.043167, -0.040769, -0.038637, -0.042634, -0.0429, -0.040236, -0.043167, -0.040769, -0.040502, -0.041568, -0.041035, -0.042368, -0.039436, -0.043167, -0.038904, -0.041035, -0.041835, -0.042634, -0.042101, -0.042101, -0.041302, -0.043167, -0.041835, -0.041835, -0.042101, -0.038104, -0.03917, -0.040769, -0.042368, -0.0429, -0.0437, -0.0429, -0.044499, -0.042634, -0.044499, -0.040769, -0.041835, -0.043433, -0.0429, -0.041035, -0.041835, -0.039703, -0.041568, -0.045832, -0.042634, -0.044499, -0.043433, -0.042101, -0.043167, -0.040236, -0.040502, -0.0429, -0.042634, -0.040769, -0.039969, -0.042634, -0.043167, -0.040769, -0.042368, -0.042101, -0.041302, -0.044233, -0.042101, -0.043433, -0.038104, -0.039703, -0.041835, -0.043433, -0.0429, -0.043167, -0.039703, -0.041035, -0.042101, -0.041302, -0.0429, -0.042101, -0.042101, -0.042368, -0.039703, -0.042101, -0.042634, -0.041835, -0.043167, -0.044499, -0.042101, -0.042101, -0.0429, -0.043167, -0.043167, -0.03917, -0.041835, -0.043433, -0.042634, -0.040769, -0.039703, -0.0437, -0.042368, -0.043167, -0.042368, -0.041835, -0.0437, -0.040769, -0.041302, -0.044233, -0.0429, -0.043433, -0.042368, -0.041835, -0.043433, -0.042634, -0.043167, -0.042101, -0.043167, -0.043966, -0.041302, -0.041302, -0.042101, -0.042368, -0.040236, -0.042101, -0.044499, -0.042368, -0.0437, -0.040502, -0.042368, -0.040502, -0.042101, -0.0437, -0.041568, -0.043167, -0.043433, -0.041568, -0.040236, -0.0437, -0.042368, -0.039703, -0.044233]","[-0.022383, -0.019185, -0.018652, -0.018652, -0.018652, -0.020784, -0.018652, -0.021051, -0.018119, -0.017587, -0.015988, -0.019718, -0.021583, -0.018652, -0.019985, -0.020518, -0.018919, -0.019985, -0.021051, -0.019985, -0.022916, -0.020784, -0.022383, -0.020784, -0.017054, -0.019718, -0.019718, -0.017853, -0.019718, -0.019452, -0.017853, -0.01732, -0.019452, -0.018119, -0.019985, -0.019718, -0.022916, -0.018919, -0.020518, -0.020518, -0.019985, -0.020784, -0.018919, -0.019985, -0.021317, -0.019185, -0.018652, -0.020784, -0.019718, -0.020251, -0.021583, -0.018386, -0.020518, -0.017853, -0.018386, -0.020251, -0.019985, -0.017054, -0.017587, -0.017587, -0.019452, -0.022383, -0.017853, -0.019452, -0.022916, -0.020784, -0.019985, -0.020784, -0.019185, -0.022116, -0.018119, -0.018652, -0.02185, -0.019452, -0.021583, -0.018119, -0.01732, -0.017587, -0.019452, -0.01732, -0.021317, -0.018386, -0.022116, -0.019452, -0.018652, -0.01732, -0.020518, -0.018119, -0.018652, -0.016787, -0.018652, -0.017054, -0.018386, -0.02185, -0.01732, -0.024248, -0.017587, -0.019718, -0.018119, -0.02185, -0.019185, -0.019185, -0.017853, -0.020518, -0.022116, -0.020518, -0.018386, -0.020251, -0.019718, -0.019985, -0.018386, -0.019185, -0.020251, -0.020518, -0.019985, -0.018386, -0.018652, -0.018386, -0.022383, -0.021317, -0.021051, -0.017853, -0.018386, -0.022649, -0.019985, -0.021317, -0.016254, -0.01732, -0.020251, -0.017587, -0.019185, -0.018119, -0.018386, -0.020784, -0.019185, -0.017587, -0.019185, -0.020518, -0.019718, -0.018119, -0.021051, -0.019185, -0.018652, -0.021051, -0.018919, -0.020518, -0.020518, -0.017853, -0.019185, -0.021051, -0.020518, -0.020784, -0.019185, -0.016787, -0.018919, -0.019718, -0.018652, -0.020784, -0.019452, -0.021051, -0.018386, -0.018919, -0.021317, -0.018652, -0.021051, -0.021051, -0.016254, -0.018919, -0.021583, -0.020784, -0.017054, -0.018919, -0.021583, -0.022116, -0.017587, -0.019185, -0.018919, -0.019718, -0.019985, -0.017853, -0.019718, -0.018119, -0.021583, -0.017054, -0.021583, -0.018386, -0.016521, -0.017853, -0.018386, -0.020251, -0.018919, -0.018386, -0.018386, -0.022116, -0.017587, -0.019985, -0.019718, -0.019985, -0.019185, -0.019718, -0.019985, -0.021051, -0.020784, -0.017853, -0.018119, -0.021051, -0.021317, -0.020518, -0.018386, -0.01732, -0.019718, -0.019718, -0.015988, -0.016521, -0.019452, -0.016787, -0.019985, -0.020251, -0.018652, -0.018652, -0.017853, -0.020251, -0.017587, -0.018919, -0.019452, -0.021051, -0.019718, -0.020784, -0.020251, -0.020784, -0.020784, -0.016521, -0.017853, -0.01732, -0.017587, -0.020518, -0.020784, -0.020784, -0.021051, -0.018652, -0.019718, -0.019185, -0.019452, -0.016521, -0.018119, -0.019985, -0.01732, -0.020251, -0.019985, -0.020251, -0.022916, -0.021051, -0.017587, -0.019452, -0.018119, -0.017853, -0.021317, -0.017054, -0.019718, -0.019718, -0.019985, -0.019452, -0.020784, -0.019185, -0.017587, -0.019985, -0.018119, -0.019985, -0.021583, -0.019718, -0.023182, -0.022383, -0.018119, -0.019718, -0.018652, -0.018119, -0.021317, -0.020518, -0.019452, -0.020251, -0.016521, -0.022116, -0.020784, -0.020251, -0.018652, -0.020784, -0.019452, -0.019452, -0.01732, -0.017587, -0.020518, -0.019185, -0.015988, -0.019718, -0.019185, -0.019985, -0.018919, -0.019718, -0.017853, -0.018919]"
